File: data/Se/se_znse_rt.xdi
# XDI/1.0 GSE/1.0
# Column.1: energy eV
# Column.2: time
# Column.3: i0
# Column.4: itrans
# Element.edge: K
# Element.symbol: Se
# Scan.edge_energy: 12658.0
# Mono.name: Si 111
# Mono.d_spacing: 3.13550
# Beamline.name: 13-BM-D
# Beamline.collimation: none
# Beamline.focusing: no
# Beamline.harmonic_rejection: Rh-coated mirror, detuned
# Facility.name: APS
# Facility.energy: 7.00 GeV
# Facility.xray_source: APS bending magnet
# Scan.start_time: 2008-04-10T18:41:21
# Detector.I0: 10cm  N2
# Detector.I1: 10cm  N2 (?)
# Sample.name: ZnSe
# Sample.prep: powder on tape, 6 layers
# ///
# room temperature
# measured at beamline 13-BM-D
#----
#   energy       time                i0           itrans
       12508.00       2.000000       120807.4       395711.4
       12513.00       2.000000       119755.4       392629.4
       12518.00       2.000000       119361.4       391516.4
       12523.00       2.000000       118891.4       390399.4
       12528.00       2.000000       119497.4       393097.4
       12533.00       2.000000       119867.4       394739.4
       12538.00       2.000000       119544.4       393981.4
       12543.00       2.000000       118952.4       392466.4
       12548.00       2.000000       118852.4       392566.4
       12553.00       2.000000       119062.4       393755.4
       12558.00       2.000000       119124.4       394286.4
       12563.00       2.000000       119075.4       394571.4
       12568.00       2.000000       119328.4       395925.4
       12573.00       2.000000       119306.4       396159.4
       12578.00       2.000000       119117.4       396038.4
       12583.00       2.000000       118963.4       395884.4
       12588.00       2.000000       118777.4       395670.4
       12593.00       2.000000       119314.4       397694.4
       12598.00       2.000000       119070.4       397268.4
       12603.00       2.000000       118792.4       396888.4
       12608.00       2.000000       119000.4       397826.4
       12613.00       2.000000       119102.4       398488.4
       12618.00       2.000000       118989.4       398533.4
       12623.00       2.000000       118872.4       398434.4
       12628.00       2.000000       119043.4       399056.4
       12633.00       2.000000       119179.4       399654.4
       12638.00       2.000000       118982.4       398959.4
       12643.00       2.000000       118855.4       397918.4
       12648.00       2.000000       119052.4       396771.4
       12648.25       2.000000       119141.4       396819.4
       12648.50       2.000000       119313.4       397278.4
       12648.75       2.000000       119373.4       397321.4
       12649.00       2.000000       119389.4       397171.4
       12649.25       2.000000       119290.4       396730.4
       12649.50       2.000000       119348.4       396600.4
       12649.75       2.000000       119393.4       396478.4
       12650.00       2.000000       119372.4       396185.4
       12650.25       2.000000       119401.4       395993.4
       12650.50       2.000000       119341.4       395477.4
       12650.75       2.000000       119379.4       395416.4
       12651.00       2.000000       119345.4       395015.4
       12651.25       2.000000       119741.4       395838.4
       12651.50       2.000000       119912.4       395852.4
       12651.75       2.000000       119932.4       395590.4
       12652.00       2.000000       119878.4       394777.4
       12652.25       2.000000       119906.4       394414.4
       12652.50       2.000000       119841.4       393419.4
       12652.75       2.000000       119820.4       392728.4
       12653.00       2.000000       119741.4       391649.4
       12653.25       2.000000       119684.4       390422.4
       12653.50       2.000000       119728.4       389735.4
       12653.75       2.000000       119626.4       388201.4
       12654.00       2.000000       119716.4       387320.4
       12654.25       2.000000       119793.4       386034.4
       12654.50       2.000000       119854.4       384318.4
       12654.75       2.000000       119872.4       382758.4
       12655.00       2.000000       119840.4       380122.4
       12655.25       2.000000       119907.4       378024.4
       12655.50       2.000000       119924.4       374526.4
       12655.75       2.000000       119991.4       371449.4
       12656.00       2.000000       119789.4       365416.4
       12656.25       2.000000       119736.4       358732.4
       12656.50       2.000000       119748.4       352632.4
       12656.75       2.000000       119726.4       343185.4
       12657.00       2.000000       119730.4       336019.4
       12657.25       2.000000       119666.4       324405.4
       12657.50       2.000000       119740.4       315616.4
       12657.75       2.000000       119703.4       304141.4
       12658.00       2.000000       119737.4       293791.4
       12658.25       2.000000       119692.4       286732.4
       12658.50       2.000000       119620.4       278842.4
       12658.75       2.000000       119530.4       274273.4
       12659.00       2.000000       119607.4       270367.4
       12659.25       2.000000       119557.4       267522.4
       12659.50       2.000000       119576.4       266377.4
       12659.75       2.000000       119554.4       265426.4
       12660.00       2.000000       119533.4       265108.4
       12660.25       2.000000       119487.4       264915.4
       12660.50       2.000000       119437.4       264934.4
       12660.75       2.000000       119531.4       265541.4
       12661.00       2.000000       119497.4       266117.4
       12661.25       2.000000       119549.4       266905.4
       12661.50       2.000000       119561.4       267931.4
       12661.75       2.000000       119525.4       268656.4
       12662.00       2.000000       119521.4       269752.4
       12662.25       2.000000       119443.4       270475.4
       12662.50       2.000000       119454.4       271585.4
       12662.75       2.000000       119437.4       273169.4
       12663.00       2.000000       119505.4       274447.4
       12663.25       2.000000       119467.4       276308.4
       12663.50       2.000000       119517.4       277803.4
       12663.75       2.000000       119487.4       279895.4
       12664.00       2.000000       119512.4       282222.4
       12664.25       2.000000       119485.4       283838.4
       12664.50       2.000000       119715.4       286656.4
       12664.75       2.000000       120081.4       289283.4
       12665.00       2.000000       120023.4       291396.4
       12665.25       2.000000       120025.4       293178.4
       12665.50       2.000000       120023.4       295751.4
       12665.75       2.000000       119960.4       298175.4
       12666.00       2.000000       120017.4       300476.4
       12666.25       2.000000       120119.4       303701.4
       12666.50       2.000000       120021.4       305636.4
       12666.75       2.000000       119929.4       308133.4
       12667.00       2.000000       119901.4       309799.4
       12667.25       2.000000       119949.4       311994.4
       12667.50       2.000000       119974.4       313351.4
       12667.75       2.000000       119923.4       313920.4
       12668.00       2.000000       119961.4       314506.4
       12668.25       2.000000       120005.4       314580.4
       12668.50       2.000000       119976.4       314112.4
       12668.75       2.000000       119947.4       313575.4
       12669.00       2.000000       119863.4       312576.4
       12669.25       2.000000       119857.4       311339.4
       12669.50       2.000000       119729.4       310147.4
       12669.75       2.000000       119804.4       308976.4
       12670.00       2.000000       119852.4       308062.4
       12670.25       2.000000       119746.4       306505.4
       12670.50       2.000000       119791.4       305650.4
       12670.75       2.000000       119806.4       304610.4
       12671.00       2.000000       119764.4       303775.4
       12671.25       2.000000       119786.4       303451.4
       12671.50       2.000000       119739.4       302900.4
       12671.75       2.000000       119734.4       302709.4
       12672.00       2.000000       119781.4       302725.4
       12672.25       2.000000       119804.4       302707.4
       12672.50       2.000000       119798.4       302754.4
       12672.75       2.000000       119730.4       302678.4
       12673.00       2.000000       119709.4       302641.4
       12673.25       2.000000       119720.4       302936.4
       12673.50       2.000000       119638.4       302919.4
       12673.75       2.000000       119685.4       303380.4
       12674.00       2.000000       119694.4       303725.4
       12674.25       2.000000       119603.4       303956.4
       12674.50       2.000000       119594.4       304452.4
       12674.75       2.000000       119593.4       304875.4
       12675.00       2.000000       119641.4       305658.4
       12675.25       2.000000       119626.4       306115.4
       12675.50       2.000000       119663.4       306888.4
       12675.75       2.000000       119574.4       307073.4
       12676.00       2.000000       119489.4       307430.4
       12676.25       2.000000       119468.4       307821.4
       12676.50       2.000000       119539.4       308345.4
       12676.75       2.000000       119599.4       308733.4
       12677.00       2.000000       119675.4       309055.4
       12677.25       2.000000       119696.4       309265.4
       12677.50       2.000000       119660.4       309182.4
       12677.75       2.000000       119566.4       308991.4
       12678.00       2.000000       120116.4       310344.4
       12678.25       2.000000       120182.4       310544.4
       12678.50       2.000000       120138.4       310208.4
       12678.75       2.000000       120077.4       309973.4
       12679.00       2.000000       120031.4       309722.4
       12679.25       2.000000       120001.4       309469.4
       12679.50       2.000000       119982.4       309223.4
       12679.75       2.000000       119935.4       308925.4
       12680.00       2.000000       119997.4       308841.4
       12680.25       2.000000       120045.4       308743.4
       12680.50       2.000000       120006.4       308500.4
       12680.75       2.000000       119938.4       308080.4
       12681.00       2.000000       119994.4       308088.4
       12681.25       2.000000       119953.4       307722.4
       12681.50       2.000000       120094.4       307983.4
       12681.75       2.000000       120038.4       307694.4
       12682.00       2.000000       119929.4       307267.4
       12682.25       2.000000       120011.4       307400.4
       12682.50       2.000000       119930.4       307073.4
       12682.75       2.000000       119877.4       306909.4
       12683.00       2.000000       119874.4       306868.4
       12683.25       2.000000       119848.4       306888.4
       12683.50       2.000000       119968.4       307232.4
       12683.75       2.000000       119939.4       307443.4
       12684.00       2.000000       119879.4       307429.4
       12684.25       2.000000       119791.4       307558.4
       12684.50       2.000000       119840.4       308010.4
       12684.75       2.000000       119755.4       308260.4
       12685.00       2.000000       119887.4       308957.4
       12685.25       2.000000       119792.4       309237.4
       12685.50       2.000000       119832.4       309728.4
       12685.75       2.000000       119793.4       310099.4
       12686.00       2.000000       119783.4       310456.4
       12686.25       2.000000       119795.4       310829.4
       12686.50       2.000000       119793.4       311087.4
       12686.75       2.000000       119823.4       311461.4
       12687.00       2.000000       119819.4       311682.4
       12687.25       2.000000       119864.4       311825.4
       12687.50       2.000000       119731.4       311562.4
       12687.75       2.000000       119631.4       311298.4
       12688.00       2.000000       119624.4       311244.4
       12688.86       2.000000       119636.4       310768.4
       12689.73       2.000000       119656.4       309887.4
       12690.62       2.000000       119741.4       309385.4
       12691.52       2.000000       119553.4       308446.4
       12692.43       2.000000       119662.4       308740.4
       12693.35       2.000000       119587.4       308756.4
       12694.28       2.000000       119584.4       309154.4
       12695.23       2.000000       119508.4       309362.4
       12696.19       2.000000       119362.4       309313.4
       12697.16       2.000000       119247.4       309439.4
       12698.14       2.000000       119688.4       310611.4
       12699.13       2.000000       119572.4       310310.4
       12700.14       2.000000       120098.4       311399.4
       12701.16       2.000000       120217.4       311422.4
       12702.19       2.000000       120173.4       311036.4
       12703.24       2.000000       120170.4       310734.4
       12704.29       2.000000       120121.4       310343.4
       12705.36       2.000000       120081.4       310333.4
       12706.44       2.000000       120061.4       310831.4
       12707.53       2.000000       120032.4       311861.4
       12708.64       2.000000       119992.4       313099.4
       12709.75       2.000000       119949.4       314212.4
       12710.88       2.000000       120046.4       315323.4
       12712.02       2.000000       120033.4       315856.4
       12713.18       2.000000       120160.4       316449.4
       12714.34       2.000000       120092.4       316374.4
       12715.52       2.000000       119986.4       316181.4
       12716.71       2.000000       120007.4       316334.4
       12717.91       2.000000       119941.4       316122.4
       12719.13       2.000000       119976.4       315936.4
       12720.35       2.000000       119905.4       315509.4
       12721.59       2.000000       119910.4       315151.4
       12722.84       2.000000       119895.4       314770.4
       12724.10       2.000000       119895.4       313987.4
       12725.38       2.000000       119986.4       313720.4
       12726.67       2.000000       120057.4       313378.4
       12727.96       2.000000       120014.4       312875.4
       12729.28       2.000000       119867.4       312385.4
       12730.60       2.000000       119837.4       312387.4
       12731.94       2.000000       119873.4       312806.4
       12733.28       2.000000       119888.4       313210.4
       12734.64       2.000000       119878.4       313434.4
       12736.02       2.000000       119835.4       313589.4
       12737.40       2.000000       119757.4       313570.4
       12738.80       2.000000       119574.4       313431.4
       12740.21       2.000000       119396.4       313119.4
       12741.63       2.000000       120158.4       315213.4
       12743.06       2.000000       119962.4       314904.4
       12744.51       2.000000       119828.4       314750.4
       12745.96       2.000000       119852.4       315271.4
       12747.43       2.000000       119861.4       315756.4
       12748.92       2.000000       119827.4       315891.4
       12750.41       2.000000       119686.4       315666.4
       12751.92       2.000000       119686.4       315558.4
       12753.44       2.000000       119819.4       315908.4
       12754.97       2.000000       119760.4       315718.4
       12756.51       2.000000       119708.4       315851.4
       12758.06       2.000000       119654.4       316117.4
       12759.63       2.000000       119739.4       317006.4
       12761.21       2.000000       119612.4       317692.4
       12762.80       2.000000       119647.4       318799.4
       12764.41       2.000000       119725.4       319925.4
       12766.02       2.000000       119741.4       320560.4
       12767.65       2.000000       119584.4       320409.4
       12769.29       2.000000       119518.4       320293.4
       12770.94       2.000000       119782.4       321074.4
       12772.61       2.000000       119589.4       320500.4
       12774.29       2.000000       120553.4       322994.4
       12775.97       2.000000       120369.4       322230.4
       12777.68       2.000000       120291.4       321569.4
       12779.39       2.000000       120237.4       320745.4
       12781.11       2.000000       120178.4       319888.4
       12782.85       2.000000       120078.4       318977.4
       12784.60       2.000000       120147.4       318338.4
       12786.36       2.000000       120044.4       317571.4
       12788.14       2.000000       120183.4       317441.4
       12789.92       2.000000       120065.4       316948.4
       12791.72       2.000000       120180.4       317216.4
       12793.54       2.000000       120160.4       317460.4
       12795.36       2.000000       120152.4       317825.4
       12797.19       2.000000       119895.4       317608.4
       12799.04       2.000000       119898.4       318163.4
       12800.90       2.000000       119828.4       318320.4
       12802.77       2.000000       119244.4       317258.4
       12804.66       2.000000       120532.4       321176.4
       12806.55       2.000000       120276.4       320918.4
       12808.46       2.000000       120048.4       320729.4
       12810.38       2.000000       119932.4       320882.4
       12812.31       2.000000       119888.4       321124.4
       12814.26       2.000000       119944.4       321659.4
       12816.21       2.000000       120045.4       322395.4
       12818.18       2.000000       120047.4       322747.4
       12820.17       2.000000       119876.4       322540.4
       12822.16       2.000000       119792.4       322717.4
       12824.17       2.000000       119878.4       323182.4
       12826.18       2.000000       119921.4       323796.4
       12828.21       2.000000       119831.4       323958.4
       12830.25       2.000000       119869.4       324546.4
       12832.31       2.000000       119799.4       324623.4
       12834.38       2.000000       119720.4       324804.4
       12836.46       2.000000       119750.4       325169.4
       12838.55       2.000000       119552.4       324939.4
       12840.65       2.000000       119659.4       325398.4
       12842.76       2.000000       120110.4       326725.4
       12844.89       2.000000       119885.4       325929.4
       12847.03       2.000000       119818.4       325646.4
       12849.18       2.000000       119792.4       325384.4
       12851.35       2.000000       119781.4       325372.4
       12853.52       2.000000       119788.4       325478.4
       12855.71       2.000000       118994.4       323557.4
       12857.91       2.000000       120251.4       326962.4
       12860.13       2.000000       119966.4       326126.4
       12862.35       2.000000       119890.4       325713.4
       12864.59       2.000000       119807.4       325091.4
       12866.84       2.000000       119543.4       324055.4
       12869.10       2.000000       119033.4       322411.4
       12871.37       2.000000       119944.4       324564.4
       12873.66       2.000000       119771.4       323961.4
       12875.96       2.000000       119622.4       323597.4
       12878.27       2.000000       119706.4       323926.4
       12880.59       2.000000       119611.4       323982.4
       12882.92       2.000000       119637.4       324626.4
       12885.27       2.000000       119586.4       325007.4
       12887.63       2.000000       119563.4       325492.4
       12890.00       2.000000       119497.4       325812.4
       12892.38       2.000000       119430.4       325988.4
       12894.78       2.000000       119486.4       326681.4
       12897.19       2.000000       119500.4       327212.4
       12899.61       2.000000       119485.4       327586.4
       12902.04       2.000000       119536.4       328215.4
       12904.48       2.000000       119578.4       328842.4
       12906.94       2.000000       119557.4       329362.4
       12909.41       2.000000       119490.4       329622.4
       12911.89       2.000000       119438.4       329902.4
       12914.38       2.000000       119453.4       330253.4
       12916.88       2.000000       119543.4       330826.4
       12919.40       2.000000       119511.4       330903.4
       12921.93       2.000000       119420.4       330859.4
       12924.47       2.000000       119473.4       331126.4
       12927.03       2.000000       119394.4       330932.4
       12929.59       2.000000       119331.4       330775.4
       12932.17       2.000000       119388.4       330907.4
       12934.76       2.000000       119315.4       330622.4
       12937.36       2.000000       119357.4       330813.4
       12939.98       2.000000       119300.4       330724.4
       12942.61       2.000000       119126.4       330311.4
       12945.24       2.000000       119421.4       331233.4
       12947.90       2.000000       119427.4       331242.4
       12950.56       2.000000       119467.4       331451.4
       12953.23       2.000000       119267.4       331074.4
       12955.92       2.000000       119259.4       331178.4
       12958.62       2.000000       119287.4       331441.4
       12961.33       2.000000       119337.4       331813.4
       12964.06       2.000000       119337.4       331958.4
       12966.79       2.000000       119241.4       331797.4
       12969.54       2.000000       119177.4       331836.4
       12972.30       2.000000       119221.4       332146.4
       12975.08       2.000000       119293.4       332379.4
       12977.86       2.000000       119336.4       332749.4
       12980.66       2.000000       119298.4       332850.4
       12983.47       2.000000       119233.4       333033.4
       12986.29       2.000000       119171.4       333163.4
       12989.13       2.000000       119058.4       333269.4
       12991.97       2.000000       118918.4       333239.4
       12994.83       2.000000       119305.4       334691.4
       12997.70       2.000000       119178.4       334782.4
       13000.58       2.000000       119198.4       335285.4
       13003.48       2.000000       119136.4       335520.4
       13006.38       2.000000       119117.4       335930.4
       13009.30       2.000000       119108.4       336379.4
       13012.23       2.000000       119035.4       336568.4
       13015.18       2.000000       118935.4       336642.4
       13018.13       2.000000       119393.4       338233.4
       13021.10       2.000000       119925.4       340119.4
       13024.08       2.000000       119726.4       339655.4
       13027.07       2.000000       119524.4       339469.4
       13030.08       2.000000       119533.4       339615.4
       13033.09       2.000000       119500.4       339662.4
       13036.12       2.000000       119527.4       339910.4
       13039.16       2.000000       119620.4       340177.4
       13042.22       2.000000       119697.4       340506.4
       13045.28       2.000000       119605.4       340350.4
       13048.36       2.000000       119518.4       340332.4
       13051.45       2.000000       119577.4       340662.4
       13054.55       2.000000       119556.4       340651.4
       13057.67       2.000000       119551.4       340781.4
       13060.79       2.000000       119528.4       340871.4
       13063.93       2.000000       119604.4       341349.4
       13067.08       2.000000       119522.4       341284.4
       13070.24       2.000000       119554.4       341621.4
       13073.42       2.000000       119375.4       341361.4
       13076.60       2.000000       119377.4       341657.4
       13079.80       2.000000       119446.4       342205.4
       13083.01       2.000000       119536.4       342688.4
       13086.24       2.000000       119479.4       342929.4
       13089.47       2.000000       119435.4       343137.4
       13092.72       2.000000       119540.4       343721.4
       13095.98       2.000000       119536.4       344023.4
       13099.25       2.000000       119384.4       343930.4
       13102.54       2.000000       119307.4       344088.4
       13105.84       2.000000       119325.4       344474.4
       13109.14       2.000000       119406.4       345063.4
       13112.47       2.000000       119397.4       345343.4
       13115.80       2.000000       119309.4       345556.4
       13119.14       2.000000       119362.4       345994.4
       13122.50       2.000000       119176.4       345728.4
       13125.87       2.000000       119295.4       346590.4
       13129.25       2.000000       119223.4       346613.4
       13132.65       2.000000       119323.4       347187.4
       13136.05       2.000000       119289.4       347458.4
       13139.47       2.000000       119100.4       347152.4
       13142.90       2.000000       119147.4       347520.4
       13146.35       2.000000       119220.4       348029.4
       13149.80       2.000000       119311.4       348645.4
       13153.27       2.000000       119158.4       348519.4
       13156.75       2.000000       119194.4       348753.4
       13160.24       2.000000       119188.4       349080.4
       13163.74       2.000000       119182.4       349192.4
       13167.26       2.000000       119218.4       349536.4
       13170.79       2.000000       119188.4       349741.4
       13174.33       2.000000       119327.4       350282.4
       13177.88       2.000000       119265.4       350310.4
       13181.44       2.000000       119153.4       350263.4
       13185.02       2.000000       119026.4       350074.4
       13188.61       2.000000       119193.4       350846.4
       13192.21       2.000000       119392.4       351721.4
       13195.82       2.000000       119657.4       352789.4
       13199.45       2.000000       119709.4       353361.4
       13203.09       2.000000       119721.4       353640.4
       13206.74       2.000000       119738.4       354063.4
       13210.40       2.000000       119650.4       354096.4
       13214.07       2.000000       119464.4       353887.4
       13217.76       2.000000       119031.4       352853.4
       13221.46       2.000000       120204.4       356794.4
       13225.17       2.000000       119763.4       355827.4
       13228.89       2.000000       119604.4       355627.4
       13232.63       2.000000       119457.4       355656.4
       13236.37       2.000000       119548.4       356219.4
       13240.13       2.000000       119499.4       356443.4
       13243.91       2.000000       119633.4       357219.4
       13247.69       2.000000       119639.4       357653.4
       13251.49       2.000000       119603.4       357816.4
       13255.29       2.000000       119286.4       357299.4
       13259.11       2.000000       119262.4       357492.4
       13262.95       2.000000       119210.4       357708.4
       13266.79       2.000000       119001.4       357361.4
       13270.65       2.000000       117591.4       353484.4
       13274.52       2.000000       117147.4       352448.4
       13278.40       2.000000       118809.4       357637.4
       13282.29       2.000000       119042.4       358666.4
       13286.20       2.000000       118826.4       358329.4
       13290.11       2.000000       119300.4       360057.4
       13294.04       2.000000       119581.4       361265.4
       13297.99       2.000000       119351.4       360819.4
       13301.94       2.000000       119136.4       360482.4
       13305.91       2.000000       119595.4       362158.4
       13309.89       2.000000       119513.4       362237.4
       13313.88       2.000000       119533.4       362662.4
       13317.88       2.000000       119452.4       362686.4
       13321.90       2.000000       119322.4       362569.4
       13325.92       2.000000       119200.4       362412.4
       13329.96       2.000000       119185.4       362746.4
       13334.01       2.000000       119454.4       363871.4
       13338.08       2.000000       119446.4       364133.4
       13342.15       2.000000       119540.4       364823.4
       13346.24       2.000000       119525.4       365074.4
       13350.34       2.000000       119485.4       365346.4
       13354.46       2.000000       119397.4       365408.4
       13358.58       2.000000       119344.4       365587.4
       13362.72       2.000000       119278.4       365674.4
       13366.87       2.000000       119181.4       365755.4
       13371.03       2.000000       119122.4       365972.4
       13375.20       2.000000       119233.4       366580.4
       13379.39       2.000000       119230.4       366947.4
       13383.58       2.000000       119217.4       367247.4
       13387.79       2.000000       119221.4       367657.4
       13392.02       2.000000       119169.4       367818.4
       13396.25       2.000000       119194.4       368383.4
       13400.50       2.000000       119172.4       368541.4
       13404.76       2.000000       119748.4       370739.4