File: data/Cr/cr2o3_ssrl4_1_rt_003.xdi
# XDI/1.0
# Column.1: energy eV
# Column.2: i0
# Column.3: itrans
# Column.4: irefer
# Beamline.name: SSRL 4-1
# Detector.I0: N2 15cm
# Detector.I1: N2 30cm
# Detector.I2: N2 15cm
# Element.edge: K
# Element.symbol: Cr
# Mono.d_spacing: 3.13550
# Mono.name: Si(111)
# Mono.notes: unfocused, detuned 30%,counter clockwise at E=6200eV
# Sample.formula: Cr2O3
# Sample.name: Cr2O3 chromium sesquioxide
# Sample.prep: powder, mixed 1:100 with B(OH)3 by wt
# Sample.reference: none
# Sample.temperature: room temperature
# Scan.start_time: 1997-01-20 20:45:03
# ///
#    Note: mono d_spacing is nominal!
#     exafs to K15: not great data!!  fluorescence signal included
#     381  E XMU XMUF I0
#-------------
#   energy   i0   itrans  irefer
    5789  520291  40346.7  39483.9
    5799.62  521918  41356.7  40463
    5810.25  523877  42428.7  41501.9
    5820.88  525979  43538.7  42578.2
    5831.5  528111  44692.7  43697.1
    5842.12  529361  45784.7  44754.3
    5852.75  531151  46948.7  45879.9
    5863.37  533213  48190.7  47081.7
    5874  534814  49403.7  48249.6
    5884.62  536599  50657.7  49461.2
    5895.25  538135  51918.7  50678.4
    5905.88  539806  53246.7  51960.8
    5916.5  541541  54610.7  53273.6
    5927.12  543140  55982.7  54591.3
    5937.75  544470  57377.7  55932.8
    5948.38  546311  58853.7  57358
    5959  547504  60233.7  58678.4
    5959.76  548128  60402.7  58843
    5960.52  548041  60485.7  58921
    5961.27  547817  60538.7  58970.5
    5962.03  547844  60639.7  59069.4
    5962.79  548258  60769.7  59191.5
    5963.54  548083  60848.7  59267.9
    5964.3  548213  60942.7  59357.5
    5965.06  548302  61041.7  59451.8
    5965.82  548676  61167.7  59571.6
    5966.58  549122  61321.7  59718.5
    5967.33  549120  61408.7  59802.2
    5968.09  549028  61478.7  59868.4
    5968.85  548975  61565.7  59951.7
    5969.6  549225  61694.7  60075.6
    5970.36  549452  61791.7  60166.9
    5971.12  549518  61847.7  60220.3
    5971.88  549198  61794.7  60163.7
    5972.64  547969  61559.7  59933.7
    5973.39  546146  61588.7  59958.1
    5974.15  544102  61869.7  60228.8
    5974.91  544330  62240.7  60586.9
    5975.67  544668  62268.7  60610.3
    5976.42  544135  62019.7  60364.4
    5977.18  544820  62022.7  60365.6
    5977.94  547206  62426.7  60755.5
    5978.7  548863  62729.7  61048.8
    5979.45  549788  62911.7  61223.9
    5980.21  550548  63092.7  61393.8
    5980.97  550458  63166.7  61463
    5981.73  550557  63263.7  61554
    5982.48  550975  63371.7  61655
    5983.24  550177  63300.7  61578.6
    5984  547346  62778.7  61063.7
    5984.76  535512  60393.7  58732.4
    5985.52  507020  57445.7  55839
    5986.27  502861  59949.7  58260.5
    5987.03  528077  62198.7  60451.3
    5987.79  541313  63085.7  61305
    5988.54  545657  63395.7  61580.3
    5989.3  547733  63413.7  61536.5
    5990.06  548896  63292.7  61326.9
    5990.82  549446  63325.7  61301.8
    5991.58  549905  63404.7  61368.1
    5992.33  550315  63218.7  61118.6
    5993.09  550517  62802.7  60602.1
    5993.85  549243  62225.7  59946.3
    5994.6  546462  62012.7  59706.8
    5995.36  543384  62146.7  59829.1
    5996.12  541268  62093.7  59743.7
    5996.88  541415  61686.7  59272.4
    5997.64  544230  61213.7  58646.5
    5998.39  547456  60448.7  57607.1
    5999.15  550072  59061.7  55826.5
    5999.91  550872  57055.7  53352.1
    6000.67  551338  55222.7  51084.5
    6001.42  551541  54054.7  49602.2
    6002.18  551490  53299.7  48658.5
    6002.94  551949  52412.7  47604.3
    6003.7  551882  51111.7  46081.9
    6004.45  552047  49822.7  44545.9
    6005.21  552530  48528.7  43024
    6005.97  551744  46834.7  41104.1
    6006.73  552195  45674.7  39702.9
    6007.49  552196  45276.7  39158.4
    6008.24  552701  45411.7  39244.5
    6009  552941  45504.7  39340
    6009.01  552736  45474.7  39314.9
    6009.04  552711  45478.7  39315.9
    6009.09  552504  45435.6  39278.8
    6009.15  552955  45460.6  39297.1
    6009.24  552910  45438.5  39274.2
    6009.35  553078  45413.4  39246.9
    6009.47  553664  45421.3  39242.6
    6009.62  553403  45317.2  39136.7
    6009.78  553746  45263  39069.4
    6009.97  554236  45211.9  39001.1
    6010.17  554146  45069.7  38839.8
    6010.39  554229  44944.5  38687.3
    6010.63  555042  44908.3  38616.1
    6010.89  555582  44852.1  38523.8
    6011.17  555929  44836.9  38479.5
    6011.47  556505  44912.6  38525
    6011.79  556455  45001.3  38600.8
    6012.13  557409  45341  38923.8
    6012.48  557390  45653.7  39248.1
    6012.86  558058  46166.4  39782.6
    6013.26  559189  46754.1  40404.2
    6013.67  559767  47244.7  40946.7
    6014.1  559894  47693.3  41456.3
    6014.56  560384  48124  41936
    6015.03  561361  48518.6  42361.1
    6015.53  562192  48851.1  42714.7
    6016.04  562742  49144.7  43026.2
    6016.57  563740  49518.3  43409.9
    6017.12  564296  49864.8  43778.7
    6017.69  565204  50264.3  44202
    6018.28  566109  50636.8  44597.8
    6018.88  566824  50950.3  44930.5
    6019.51  568157  51221.7  45201.4
    6020.16  568442  51273.2  45247.2
    6020.83  569920  51328.6  45265.2
    6021.51  570656  51226  45115.8
    6022.21  571685  51147.4  44977
    6022.94  572683  51095.8  44867.9
    6023.69  573509  51138.2  44865.2
    6024.44  575137  51319.5  45004.3
    6025.23  575957  51524.9  45185
    6026.03  576805  51903.2  45557
    6026.85  578518  52496.5  46163.9
    6027.69  579148  53106.8  46822.4
    6028.55  580622  53830.1  47590.1
    6029.43  581735  54494.3  48305.6
    6030.32  583013  55142.6  49005.5
    6031.24  584417  55775.8  49676.1
    6032.18  585822  56326.9  50254.4
    6033.14  587268  56858.1  50809.6
    6034.11  588412  57326.3  51295.6
    6035.1  589716  57839.4  51828.1
    6036.12  591659  58380.6  52376.2
    6037.15  593081  58788.7  52784.8
    6038.2  593896  59060.8  53052.5
    6039.27  596164  59449.9  53407.6
    6040.36  597362  59662.9  53589.2
    6041.47  599031  59857.1  53735.4
    6042.6  600781  60016.1  53831.3
    6043.75  601975  60124.1  53884.5
    6044.92  604154  60435.1  54137.1
    6046.11  605750  60712.1  54374.1
    6047.31  607536  60978  54595.8
    6048.54  609394  61182  54741.3
    6049.79  611019  61232.9  54724
    6051.05  612496  61178.9  54577.8
    6052.33  614306  61124.8  54417.9
    6053.64  616674  61168.7  54352.8
    6054.96  618356  61201.5  54296.8
    6056.3  619490  61213.4  54231.3
    6057.66  621618  61287.2  54209.1
    6059.04  622452  61215.1  54051.1
    6060.44  623805  61238.9  53977.2
    6061.86  625307  61277.7  53928.3
    6063.3  627660  61446.4  54006.5
    6064.76  629469  61656.2  54144.1
    6066.23  631366  61920.9  54347
    6067.73  633898  62267.6  54621
    6069.24  636166  62626.4  54906.8
    6070.78  638069  62986  55211.3
    6072.34  640134  63446.7  55626
    6073.91  642798  64018.4  56148.8
    6075.5  644756  64558  56653.3
    6077.11  647387  65131.7  57178.6
    6078.74  649083  65598.2  57606
    6080.4  651656  66211.9  58177.3
    6082.07  654439  66929.4  58861.8
    6083.76  656749  67638  59546.4
    6085.47  659322  68356.5  60229.7
    6087.19  661534  69012.1  60859.5
    6088.94  664185  69736.5  61548.1
    6090.7  666105  70389.1  62177.5
    6092.49  669225  71181.5  62928.1
    6094.3  671401  71760  63470.5
    6096.12  674132  72321.5  63960.2
    6097.97  677230  72802.9  64351.1
    6099.83  679572  73194.3  64658.9
    6101.71  681917  73650.7  65029.9
    6103.61  684673  74211.1  65513.8
    6105.53  687772  74895.4  66118.6
    6107.47  690792  75585.8  66743.9
    6109.43  693603  76282.1  67376.6
    6111.41  696186  76948.4  67978.5
    6113.41  698702  77552.7  68510.4
    6115.43  702104  78198  69065.6
    6117.46  704834  78735.2  69512.5
    6119.52  707469  79285.5  69971.7
    6121.6  710530  79955.8  70552.3
    6123.69  713948  80696.9  71203.4
    6125.81  716914  81384.1  71806.3
    6127.94  719932  82078.3  72409.2
    6130.09  722590  82712.5  72959.5
    6132.26  725944  83379.7  73518.5
    6134.45  728652  83899.8  73926
    6136.66  732831  84593.9  74474.9
    6138.89  735696  85140  74901.6
    6141.14  738752  85706.1  75347.4
    6143.41  741757  86284.2  75801.7
    6145.7  745220  86982.2  76376.1
    6148.01  748637  87759.2  77037
    6150.33  752403  88655.3  77828.4
    6152.68  755246  89490.2  78571.6
    6155.05  758156  90280.2  79263.9
    6157.43  762015  91051.2  79890.4
    6159.83  764960  91592.1  80284.1
    6162.26  768764  92299.1  80832
    6164.7  771820  92980  81376.6
    6167.16  775205  93800.9  82069.1
    6169.64  779208  94856.8  83014
    6172.14  782828  96007.7  84084.4
    6174.66  786541  97199.5  85202.5
    6177.2  789752  98232.3  86143
    6179.76  794021  99253.1  87028.7
    6182.33  797262  100084  87722.5
    6184.93  801695  101090  88577.7
    6187.55  804982  102057  89417.7
    6190.18  809055  103112  90344
    6192.84  813073  104222  91318.3
    6195.51  816973  105460  92446.4
    6198.2  820798  106787  93675.9
    6200.92  824030  108090  94895.2
    6203.65  828414  109522  96222.8
    6206.4  832048  110723  97307.4
    6209.17  835748  111806  98237.2
    6211.96  839748  112879  99144.7
    6214.77  844773  114072  100146
    6217.6  847882  114904  100807
    6220.45  852370  115864  101548
    6223.31  856536  116725  102186
    6226.2  860557  117634  102882
    6229.1  864773  118648  103681
    6232.03  869119  119793  104636
    6234.97  872129  120425  105176
    6237.94  868147  121560  106179
    6240.92  881411  123731  108070
    6243.92  866974  122509  106985
    6246.94  888947  126333  110313
    6249.98  893730  127775  111583
    6253.04  898851  129287  112892
    6256.12  903199  130626  114036
    6259.22  908114  132009  115192
    6262.34  912972  133316  116258
    6265.48  917182  134647  117374
    6268.63  922021  136207  118721
    6271.81  926496  137760  120079
    6275.01  931068  139382  121510
    6278.22  935870  141102  123025
    6281.45  941156  142825  124528
    6284.71  944534  144168  125678
    6287.98  949785  145822  127079
    6291.27  954400  147326  128326
    6294.58  960241  149046  129773
    6297.91  963952  150463  130957
    6301.26  969058  152061  132286
    6304.63  974029  153617  133551
    6308.02  978113  155091  134771
    6311.43  983952  157017  136411
    6314.85  988685  158875  138033
    6318.3  993902  160851  139751
    6321.77  997796  162630  141307
    6325.25  1.00336e+06  164760  143179
    6328.76  1.00887e+06  166931  145098
    6332.28  1.01397e+06  169018  146929
    6335.82  1.01834e+06  170919  148572
    6339.38  1.02367e+06  172959  150322
    6342.97  1.02865e+06  174856  151925
    6346.56  1.03414e+06  176826  153551
    6350.19  1.03934e+06  178730  155120
    6353.82  1.04457e+06  180653  156712
    6357.48  1.04956e+06  182638  158356
    6361.16  1.05529e+06  184760  160123
    6364.86  1.06031e+06  186817  161838
    6368.57  1.06526e+06  188904  163584
    6372.31  1.07141e+06  191283  165594
    6376.07  1.07594e+06  193462  167451
    6379.84  1.08163e+06  195920  169564
    6383.63  1.08715e+06  198277  171566
    6387.45  1.09308e+06  200669  173559
    6391.28  1.09798e+06  202786  175282
    6395.13  1.10376e+06  205142  177215
    6399  1.11021e+06  207730  179372
    6402.89  1.11568e+06  210191  181452
    6406.8  1.12113e+06  212722  183592
    6410.73  1.12622e+06  215168  185656
    6414.68  1.13234e+06  217788  187855
    6418.65  1.13704e+06  220182  189851
    6422.63  1.14445e+06  223229  192437
    6426.64  1.14938e+06  225792  194591
    6430.67  1.15473e+06  228442  196827
    6434.71  1.15949e+06  230941  198911
    6438.77  1.1662e+06  233854  201338
    6442.86  1.1719e+06  236607  203638
    6446.96  1.17739e+06  239407  205991
    6451.08  1.18323e+06  242465  208614
    6455.22  1.1889e+06  245590  211331
    6459.38  1.19527e+06  248832  214102
    6463.56  1.20135e+06  251989  216790
    6467.76  1.2078e+06  255252  219559
    6471.98  1.21343e+06  258283  222092
    6476.22  1.21893e+06  261270  224571
    6480.48  1.22466e+06  264324  227096
    6484.75  1.23121e+06  267574  229801
    6489.05  1.2361e+06  270510  232218
    6493.36  1.24298e+06  273859  234975
    6497.7  1.2493e+06  277128  237662
    6502.05  1.25523e+06  280381  240329
    6506.42  1.26139e+06  283838  243190
    6510.82  1.26716e+06  287180  245960
    6515.23  1.27474e+06  290892  249013
    6519.66  1.28067e+06  294233  251704
    6524.11  1.28674e+06  297633  254497
    6528.58  1.29256e+06  301218  257460
    6533.07  1.29984e+06  305233  260800
    6537.58  1.30562e+06  308913  263880
    6542.1  1.311e+06  312653  267000
    6546.65  1.31708e+06  316608  270320
    6551.21  1.32358e+06  320694  273764
    6555.8  1.33043e+06  324843  277244
    6560.41  1.33796e+06  329338  281025
    6565.03  1.34362e+06  333398  284438
    6569.67  1.34995e+06  337701  288048
    6574.33  1.35572e+06  341809  291455
    6579.02  1.362e+06  346019  294901
    6583.72  1.36909e+06  350390  298474
    6588.44  1.37483e+06  354456  301761
    6593.18  1.38173e+06  358825  305272
    6597.94  1.38785e+06  363075  308737
    6602.72  1.39452e+06  367488  312302
    6607.52  1.40095e+06  371978  315954
    6612.33  1.40723e+06  376610  319806
    6617.17  1.41453e+06  381569  323930
    6622.02  1.42104e+06  386420  327952
    6626.9  1.42807e+06  391377  332028
    6631.79  1.4339e+06  396077  335907
    6636.71  1.44027e+06  401024  339986
    6641.64  1.44708e+06  406215  344264
    6646.59  1.45334e+06  411345  348500
    6651.56  1.45984e+06  416425  352664
    6656.55  1.46733e+06  422042  357299
    6661.56  1.47314e+06  427144  361503
    6666.59  1.47962e+06  432422  365819
    6671.64  1.48594e+06  437625  370073
    6676.71  1.49244e+06  443023  374457
    6681.8  1.49827e+06  448282  378741
    6686.9  1.50452e+06  453677  383117
    6692.03  1.51042e+06  458905  387290
    6697.18  1.51781e+06  464719  391992
    6702.34  1.52148e+06  469289  395664
    6707.52  1.52376e+06  472454  398167
    6712.73  1.4955e+06  464428  391149
    6717.95  1.50005e+06  486026  409280
    6723.19  1.54406e+06  489106  411349
    6728.45  1.56723e+06  503325  423252
    6733.73  1.57013e+06  508325  427345
    6739.03  1.56215e+06  506185  425391
    6744.35  1.58004e+06  520323  437050
    6749.69  1.58369e+06  525297  441080
    6755.04  1.60076e+06  536813  450551
    6760.42  1.60329e+06  541533  454327
    6765.82  1.57703e+06  537389  450767
    6771.24  1.61881e+06  556330  466425
    6776.67  1.62128e+06  561897  470894
    6782.12  1.60969e+06  558937  468148
    6787.6  1.56519e+06  561046  469904
    6793.09  1.62708e+06  571162  477683
    6798.6  1.66575e+06  597913  500103
    6804.13  1.6674e+06  603032  504191
    6809.68  1.67294e+06  609997  509794
    6815.25  1.67643e+06  616530  515061
    6820.84  1.68419e+06  624705  521645
    6826.45  1.69034e+06  632311  527777
    6832.08  1.69495e+06  639327  533395
    6837.73  1.70165e+06  647379  539883
    6843.39  1.70867e+06  655581  546449
    6849.08  1.71579e+06  663951  553150
    6854.78  1.72222e+06  672155  559759
    6860.51  1.72831e+06  680333  566290
    6866.25  1.73508e+06  688837  573038