File: data/Cr/cr2o3_15K_001.xdi
# XDI/1.0
# Column.1: energy eV
# Column.2: i0
# Column.3: itrans
# Column.4: irefer
# Beamline.name: SSRL 2-3
# Beamline.notes: vert slits = 0.6mm
# Detector.I0: N2 15cm
# Detector.I1: N2 30cm
# Detector.I2: N2 15cm
# Element.edge: K
# Element.symbol: Cr
# Mono.d_spacing: 3.13550
# Mono.name: Si(111)
# Mono.notes: unfocused, detuned 75%, clockwise at E=5990eV
# Sample.formula: Cr2O3
# Sample.name: Cr2O3
# Sample.prep: powder on tape (4 layers)
# Sample.reference: Cr foil
# Sample.temperature: 15K
# Scan.start_time: 1997-04-18 10:20:18
# ///
#    Note: mono d_spacing is nominal!
#     exafs to K16
#     396  E XMU XMUR I0
#-------------
#   energy   i0   itrans  irefer
    5759.99  213083  17480.7  2218.3
    5769.98  212146  17693.7  2259.3
    5780.01  211320  17926.7  2301.3
    5790  210409  18154.7  2346.3
    5799.97  209519  18379.7  2390.3
    5810.03  208725  18620.7  2436.3
    5820  207936  18860.7  2482.3
    5830  207159  19099.7  2531.3
    5839.97  206404  19345.7  2577.3
    5849.98  205648  19585.7  2626.3
    5860.02  204753  19818.7  2672.3
    5870.02  203847  20057.7  2721.3
    5879.99  203127  20305.7  2772.3
    5890  202029  20518.7  2818.3
    5899.97  201047  20746.7  2865.3
    5909.98  200323  20997.7  2919.3
    5920.02  199385  21224.7  2969.3
    5930.03  198467  21459.7  3016.3
    5939.99  197608  21688.7  3067.3
    5950  196828  21922.7  3115.3
    5959.97  196098  22174.7  3169.3
    5969.97  194936  22366.7  3212.3
    5970.49  194600  22337.7  3212.3
    5971.01  194124  22302.7  3205.3
    5971.53  193792  22291.7  3204.3
    5971.97  192731  22190.7  3190.3
    5972.49  191264  22030.7  3169.3
    5973.01  191119  21984.7  3161.3
    5973.53  192753  22190.7  3194.3
    5973.98  193987  22365.7  3218.3
    5974.5  194177  22415.7  3225.3
    5975.02  194136  22431.7  3226.3
    5975.46  194164  22449.7  3232.3
    5975.98  194063  22440.7  3230.3
    5976.51  193855  22437.7  3233.3
    5977.03  193757  22437.7  3233.3
    5977.47  193736  22450.7  3234.3
    5977.99  193778  22484.7  3239.3
    5978.52  193421  22455.7  3237.3
    5979.04  193272  22452.7  3237.3
    5979.48  193265  22458.7  3238.3
    5980.01  193443  22500.7  3243.3
    5980.53  193151  22481.7  3238.3
    5980.97  193112  22482.7  3238.3
    5981.49  193198  22510.7  3244.3
    5982.02  193240  22540.7  3248.3
    5982.46  192799  22495.7  3243.3
    5982.99  192881  22528.7  3248.3
    5983.51  192919  22544.7  3248.3
    5984.03  192886  22551.7  3251.3
    5984.48  192639  22541.7  3248.3
    5985  192671  22559.7  3250.3
    5985.52  192596  22573.7  3252.3
    5985.97  190980  22418.7  3229.3
    5986.49  186781  21951.7  3160.3
    5987.02  178281  20926.7  3010.3
    5987.46  169032  19826.7  2851.3
    5987.99  169919  19934.7  2863.3
    5988.51  177908  20900.7  2994.3
    5989.03  182983  21554.7  3075.3
    5989.48  185679  21883.7  3104.3
    5990  187313  22071.7  3093.3
    5990.53  188198  22177.7  3035.3
    5990.98  188532  22209.7  2963.3
    5991.5  188820  22220.7  2883.3
    5992.02  188883  22202.7  2817.3
    5992.47  188666  22170.7  2771.3
    5992.99  189028  22241.7  2738.3
    5993.52  189154  22268.7  2700.3
    5993.97  188875  22221.7  2664.3
    5994.49  188827  22175.7  2629.3
    5995.02  188981  22164.7  2602.3
    5995.47  188767  22120.7  2583.3
    5995.99  188686  22116.7  2573.3
    5996.51  188636  22132.7  2571.3
    5996.96  188711  22158.7  2574.3
    5997.49  188577  22154.7  2573.3
    5998.01  188389  22137.7  2562.3
    5998.54  188289  22119.7  2540.3
    5998.99  188270  22093.7  2505.3
    5999.51  188182  22024.7  2450.3
    6000.04  187732  21873.7  2381.3
    6000.49  187466  21724.7  2322.3
    6001.01  186917  21445.7  2244.3
    6001.46  185668  21086.7  2169.3
    6001.99  184492  20708.7  2093.3
    6002.51  185162  20615.7  2049.3
    6002.96  186608  20625.7  2025.3
    6003.49  187404  20562.7  1995.3
    6004.02  187634  20518.7  1967.3
    6004.47  187648  20472.7  1944.3
    6004.99  187636  20359.7  1916.3
    6005.52  187367  20183.7  1880.3
    6005.97  187165  20027.7  1852.3
    6006.5  187211  19876.7  1820.3
    6007.02  187265  19745.7  1791.3
    6007.47  186939  19563.7  1759.3
    6008  186789  19348.7  1722.3
    6008.53  186982  19182.7  1691.3
    6008.98  186866  19080.7  1669.3
    6009.5  186579  19022.7  1648.3
    6010.03  186462  19036.7  1632.3
    6010.94  186562  19108.5  1616.07
    6011.84  186469  19069.7  1616.36
    6012.82  186293  18931.5  1634.18
    6013.8  186296  18911.8  1678.53
    6014.78  186326  19072.6  1730.41
    6015.76  186191  19298  1771.83
    6016.81  186174  19474.8  1792.77
    6017.8  186108  19575.1  1792.23
    6018.93  186332  19715  1782.23
    6019.99  186379  19843.4  1774.76
    6021.12  186253  19929.3  1769.82
    6022.18  186221  19968.7  1771.4
    6023.39  186561  19976.6  1783.52
    6024.52  186742  19950  1795.16
    6025.73  186793  19938  1798.34
    6026.87  186759  19945.4  1790.04
    6028.16  186975  20039.4  1782.27
    6029.37  187143  20196.9  1780.03
    6030.58  187229  20357.9  1782.32
    6031.87  187172  20522.4  1789.14
    6033.16  187595  20712.4  1797.49
    6034.53  187804  20851  1810.37
    6035.82  188200  20986  1822.77
    6037.19  188081  21075.6  1828.71
    6038.56  188421  21205.7  1834.18
    6040  188650  21300.3  1832.17
    6041.37  189216  21417.4  1838.7
    6042.82  189427  21487  1844.75
    6044.26  189567  21522.2  1855.33
    6045.71  189776  21554.8  1867.44
    6047.24  190332  21657  1885.08
    6048.76  190794  21746.7  1900.25
    6050.29  190900  21794.9  1916.95
    6051.82  191217  21843.6  1940.18
    6053.42  191662  21871.8  1965.94
    6054.95  192228  21912.5  1992.22
    6056.56  192767  21959.8  2019.04
    6058.24  193033  21994.5  2041.39
    6059.85  193434  22033.8  2058.26
    6061.53  193331  22011.6  2066.66
    6063.22  193632  22037.9  2072.6
    6064.91  194100  22092.7  2070.06
    6066.68  194562  22170  2063.05
    6068.36  195045  22269.9  2054.57
    6070.13  195584  22367.2  2036.62
    6071.9  196150  22466.1  2019.2
    6073.75  196975  22627.5  2019.31
    6075.52  197511  22759.4  2040.94
    6077.37  197962  22913.8  2081.11
    6079.22  198575  23069.7  2124.81
    6081.15  199097  23209.1  2171.03
    6083  199924  23392.1  2221.79
    6084.93  200476  23560.5  2269.07
    6086.87  201133  23754.5  2297.88
    6088.8  201596  23899  2302.22
    6090.81  202330  24079  2288.09
    6092.83  203094  24286.5  2255.49
    6094.84  203899  24487.6  2222.42
    6096.86  204565  24656.1  2193.88
    6098.88  205223  24809.2  2167.87
    6100.98  205861  24927.8  2158.39
    6103.07  206627  25081.8  2176.43
    6105.18  207358  25240.4  2216.01
    6107.28  208174  25418.6  2282.11
    6109.46  208965  25623.2  2354.75
    6111.64  209825  25809.3  2426.91
    6113.83  210481  25990  2485.6
    6116.01  211286  26156.2  2531.82
    6118.28  212039  26323.8  2557.57
    6120.47  212863  26490  2570.85
    6122.74  213793  26686.7  2582.66
    6125.01  214500  26870  2595
    6127.36  215566  27088.7  2621.87
    6129.64  216356  27288.9  2659.26
    6131.99  217220  27490.7  2696.19
    6134.35  217974  27677  2732.64
    6136.79  218995  27873.8  2761.63
    6139.15  219790  28035.1  2774.14
    6141.59  220638  28216.9  2788.18
    6144.04  221518  28395.2  2801.76
    6146.48  222364  28586.1  2813.86
    6148.93  223456  28819.4  2820.49
    6151.46  224606  29073.3  2829.65
    6153.99  225380  29297.7  2845.34
    6156.53  226487  29552.6  2862.55
    6159.06  227528  29767  2869.3
    6161.6  228295  29935.9  2859.58
    6164.22  229406  30160.4  2850.38
    6166.84  230171  30347.3  2850.72
    6169.47  231082  30570.8  2882.58
    6172.1  232102  30844.8  2940.97
    6174.81  233166  31138.3  3012.9
    6177.52  233944  31400.3  3080.35
    6180.23  235345  31723.8  3146.33
    6182.95  236037  31921.8  3197.84
    6185.67  237152  32176.4  3245.88
    6188.47  238158  32431.4  3281.45
    6191.27  239156  32701  3318.54
    6194.08  240450  33010.1  3358.17
    6196.89  241339  33280.7  3400.33
    6199.7  242521  33622.8  3447.01
    6202.6  243679  33981.4  3494.22
    6205.5  244679  34303.6  3538.97
    6208.4  245711  34593.3  3586.24
    6211.3  246718  34865.4  3637.05
    6214.21  248022  35167.1  3690.38
    6217.2  249182  35453.3  3732.24
    6220.2  250234  35725  3753.63
    6223.19  251503  35999.3  3771.54
    6226.19  252679  36254  3778.99
    6229.2  253932  36528.3  3785.97
    6232.28  255038  36803  3788.48
    6235.38  255333  37004.3  3779.51
    6238.47  258334  37597.1  3820.08
    6241.56  252752  36887.4  3732.17
    6244.75  258445  37939.2  3836.79
    6247.85  260246  38375.5  3894.94
    6251.04  261693  38743.4  3966.63
    6254.23  262910  39102.8  4052.84
    6257.43  264073  39425.6  4147.58
    6260.71  265142  39730  4230.85
    6263.91  266620  40096.9  4288.65
    6267.2  267665  40403.3  4333.98
    6270.49  268845  40752.3  4376.84
    6273.79  270051  41113.7  4424.22
    6277.17  271292  41502.6  4482.13
    6280.48  272542  41894.1  4537.58
    6283.86  273830  42275.1  4589.55
    6287.26  274929  42632.6  4635.05
    6290.65  276136  42987.6  4678.09
    6294.06  277044  43292.1  4723.65
    6297.54  278630  43734.2  4786.74
    6300.95  279984  44116.8  4850.36
    6304.45  281136  44460.8  4909.51
    6307.95  282152  44779.4  4954.19
    6311.54  283582  45176.5  5006.39
    6315.05  285000  45599.1  5054.13
    6318.56  286202  46011.2  5094.4
    6322.16  287409  46420.8  5125.19
    6325.77  288372  46780  5157.51
    6329.38  289663  47237.6  5207.37
    6333.07  290886  47682.8  5257.75
    6336.69  292340  48159.5  5312.66
    6340.4  293399  48548.7  5371.1
    6344.11  294576  48975.4  5435.07
    6347.83  296079  49407.7  5507.57
    6351.55  297243  49792.4  5574.6
    6355.27  298256  50176.7  5640.16
    6359.09  299575  50607.4  5711.25
    6362.82  300842  51034.7  5794.86
    6366.65  301840  51430.5  5874.01
    6370.47  302966  51835.8  5946.68
    6374.31  304298  52286.7  6016.89
    6378.23  305503  52767  6086.62
    6382.07  306670  53220.8  6147.88
    6386.01  307984  53720.2  6215.67
    6389.95  308893  54121.1  6278.99
    6393.89  309862  54504.5  6337.85
    6397.84  311319  55002.4  6413.22
    6401.88  312628  55491.8  6482.13
    6405.84  313803  55973.7  6543.57
    6409.89  314581  56379.2  6600.54
    6413.95  315760  56856.2  6672.03
    6418.01  316984  57331.6  6748.05
    6422.08  318064  57802.6  6823.61
    6426.15  319141  58265.1  6894.69
    6430.32  320474  58837.1  6974.31
    6434.4  321441  59276.7  7029.45
    6438.58  322482  59744.7  7090.12
    6442.76  323457  60197.2  7147.32
    6446.95  324757  60710.3  7230.05
    6451.23  325582  61178.9  7316.31
    6455.43  326707  61739  7409.09
    6459.72  327862  62291.6  7510.41
    6463.93  328984  62834.7  7604.26
    6468.24  329908  63329.3  7689.63
    6472.55  330923  63829.5  7766.54
    6476.95  332206  64381.2  7855.97
    6481.28  333206  64878.3  7941.93
    6485.61  334220  65390.1  8033.43
    6490.03  335244  65908.2  8113.44
    6494.46  336168  66378  8184
    6498.9  337257  66898.2  8264.09
    6503.34  337992  67373  8338.69
    6507.79  339223  67937.2  8429.83
    6512.34  340200  68477  8525.5
    6516.8  340971  68965.2  8618.69
    6521.35  342240  69543.1  8715.41
    6525.92  342909  70000.4  8798.67
    6530.49  343855  70532.2  8893.46
    6535.07  344599  71029.5  8982.78
    6539.65  345359  71552.4  9072.62
    6544.25  346119  72088.7  9155.98
    6548.94  346825  72629.7  9235.89
    6553.54  347141  73041.1  9304.32
    6558.24  348471  73691  9405.28
    6562.95  348838  74167.4  9490.77
    6567.67  349631  74736.3  9592.79
    6572.4  350425  75299.7  9691.33
    6577.22  351183  75858.7  9793.41
    6581.96  351585  76288.2  9883.01
    6586.79  352756  76909.2  9988.15
    6591.55  353605  77462.7  10094.8
    6596.4  354096  77923.7  10183
    6601.26  355240  78547.3  10288.7
    6606.12  355587  78978.3  10374
    6611.09  356541  79586.8  10477.8
    6615.97  357175  80114.9  10575.1
    6620.95  357910  80734.5  10681.9
    6625.85  357910  81132.6  10757.3
    6630.85  359222  81841.2  10881.2
    6635.85  359540  82316.3  10969.6
    6640.87  360124  82884.9  11075.6
    6645.89  360488  83377.1  11174
    6650.92  360874  83873.8  11268.1
    6655.96  362129  84578  11397.6
    6661.1  362431  85086.7  11497.7
    6666.15  362779  85576.8  11592.3
    6671.31  362968  86056.6  11691.4
    6676.47  363438  86603.9  11790.1
    6681.64  363230  86975.5  11870.3
    6686.82  363478  87467.8  11965
    6692.01  362910  87762.6  12037.2
    6697.3  360885  87751.9  12064
    6702.51  345046  84970.7  11701.3
    6707.72  386677  95337.1  13166.1
    6713.04  373810  92231.9  12764.5
    6718.37  371542  92097.2  12774.4
    6723.7  370347  92245.1  12821.8
    6729.05  369706  92543.5  12900.8
    6734.4  368155  92640.3  12947.3
    6739.77  374470  94598.7  13256.3
    6745.14  370020  94074.6  13229.8
    6750.61  364541  92342.1  13019.9
    6756  367722  94577  13371.5
    6761.5  372614  96775.5  13710.6
    6766.91  374243  97116.4  13800.3
    6772.42  366119  95674.9  13631.5
    6777.94  375201  98361.9  14055.2
    6783.48  374253  98626.4  14131.4
    6789.02  373144  98817.4  14201.2
    6794.57  371498  98839  14238.5
    6800.23  367642  98278  14192.3
    6805.8  357383  96599.5  13999.7
    6811.48  387769  104609  15201.6
    6817.07  381237  103550  15088
    6822.77  379223  103596  15128.9
    6828.47  378200  103864  15205.4
    6834.19  377822  104301  15302.4
    6839.92  377655  104793  15427
    6845.66  377270  105217  15536
    6851.4  377384  105792  15655.6
    6857.16  377324  106326  15774.7
    6863.03  376945  106772  15877.4
    6868.81  376758  107265  15996.6
    6874.7  376868  107870  16128.3
    6880.5  376888  108408  16258.5
    6886.41  376568  108863  16376.3
    6892.33  376582  109432  16501.6
    6898.26  376589  109993  16637.4
    6904.2  376469  110541  16769.8
    6910.15  375995  110968  16881.7
    6916.11  375998  111521  17012.1
    6922.09  375174  111890  17109.1
    6928.18  374764  112362  17227.5
    6934.17  374945  112966  17369.5
    6940.28  375445  113680  17537.1
    6946.3  375055  114179  17659.1
    6952.43  374368  114567  17762.7
    6958.57  373965  115018  17885.8
    6964.62  374080  115662  18031.5
    6970.78  374040  116230  18166.7
    6976.96  373898  116800  18299.4
    6983.15  373891  117398  18444.6
    6989.35  373291  117776  18556.4
    6995.66  373277  118382  18694.7
    7001.88  372982  118901  18828.5
    7008.12  373247  119565  18983.8
    7014.47  372780  120034  19107.7
    7020.72  372294  120454  19227.2
    7027.1  371566  120825  19333.1
    7033.38  371596  121460  19486.6
    7039.77  371462  122040  19628.6
    7046.18  371016  122495  19748.1
    7052.6  371176  123148  19901.1
    7059.04  370977  123716  20051.7
    7065.48  370669  124219  20181.8
    7071.94  370396  124750  20320.5
    7078.41  370205  125289  20460.7
    7084.9  369501  125707  20573.4
    7091.39  369286  126300  20726.6
    7097.9  368915  126774  20862.4
    7104.53  368501  127265  20995.7
    7111.06  368443  127872  21152.5