File: data/Cr/cr2o3_rt_001.xdi
# XDI/1.0
# Column.1: energy eV
# Column.2: i0
# Column.3: itrans
# Column.4: irefer
# Beamline.name: SSRL 2-3
# Beamline.notes: vert slits = 0.6mm
# Detector.I0: N2 15cm
# Detector.I1: N2 30cm
# Detector.I2: N2 15cm
# Element.edge: K
# Element.symbol: Cr
# Mono.d_spacing: 3.13550
# Mono.name: Si(111)
# Mono.notes: unfocused, detuned 75%, clockwise at E=5990eV
# Sample.formula: Cr2O3
# Sample.name: Cr2O3
# Sample.prep: powder on tape (5 layers)
# Sample.reference: Cr foil
# Sample.temperature: room temp
# Scan.start_time: 1997-04-17 17:30:13
# ///
#    Note: mono d_spacing is nominal!
#     exafs to K16
#     396  E XMU XMUR I0
#-------------
#   energy   i0   itrans  irefer
    5759.99  26429.9  9177.5  1164.7
    5769.98  26398.9  9365.5  1195.7
    5780.01  26366.9  9561.5  1229.7
    5790  26332.9  9753.5  1261.7
    5799.97  26280.9  9943.5  1294.7
    5810.03  26257.9  10154.5  1328.7
    5820  26205.9  10342.5  1361.7
    5830  26152.9  10546.5  1397.7
    5839.97  26102.9  10749.5  1431.7
    5849.98  26043.9  10948.5  1468.7
    5860.02  25980.9  11157.5  1502.7
    5870.02  25930.9  11369.5  1541.7
    5879.99  25893.9  11578.5  1580.7
    5890  25823.9  11783.5  1619.7
    5899.97  25779.9  12003.5  1659.7
    5909.98  25737.9  12225.5  1699.7
    5920.02  25663.9  12433.5  1738.7
    5930.03  25610.9  12649.5  1779.7
    5939.99  25544.9  12860.5  1818.7
    5950  25487.9  13078.5  1860.7
    5959.97  25418.9  13288.5  1900.7
    5969.97  25342.9  13493.5  1941.7
    5970.49  25313.9  13492.5  1943.7
    5971.01  25306.9  13498.5  1942.7
    5971.53  25268.9  13483.5  1940.7
    5971.97  25162.9  13438.5  1935.7
    5972.49  25002.9  13365.5  1923.7
    5973.01  24931.9  13337.5  1920.7
    5973.53  25047.9  13407.5  1931.7
    5973.98  25190.9  13500.5  1944.7
    5974.5  25296.9  13562.5  1954.7
    5975.02  25348.9  13603.5  1960.7
    5975.46  25352.9  13620.5  1966.7
    5975.98  25364.9  13636.5  1966.7
    5976.51  25321.9  13631.5  1966.7
    5977.03  25339.9  13651.5  1969.7
    5977.47  25343.9  13659.5  1972.7
    5977.99  25342.9  13671.5  1973.7
    5978.52  25326.9  13669.5  1974.7
    5979.04  25339.9  13689.5  1975.7
    5979.48  25340.9  13704.5  1979.7
    5980.01  25364.9  13726.5  1981.7
    5980.53  25327.9  13719.5  1979.7
    5980.97  25337.9  13733.5  1982.7
    5981.49  25345.9  13748.5  1986.7
    5982.02  25380.9  13779.5  1991.7
    5982.46  25352.9  13773.5  1990.7
    5982.99  25363.9  13788.5  1991.7
    5983.51  25376.9  13804.5  1994.7
    5984.03  25397.9  13831.5  1997.7
    5984.48  25389.9  13825.5  1996.7
    5985  25394.9  13842.5  1998.7
    5985.52  25356.9  13835.5  1996.7
    5985.97  25233.9  13775.5  1986.7
    5986.49  24883.9  13589.5  1961.7
    5987.02  24078.9  13160.5  1898.7
    5987.46  22715.9  12419.5  1789.7
    5987.99  21981.9  12022.5  1728.7
    5988.51  23097.9  12646.5  1816.7
    5989.03  24008.9  13144.5  1884.7
    5989.48  24412.9  13367.5  1906.7
    5990  24731.9  13535.5  1915.7
    5990.53  24909.9  13616.5  1895.7
    5990.98  24951.9  13610.5  1848.7
    5991.5  25017.9  13574.5  1787.7
    5992.02  25044.9  13476.5  1733.7
    5992.47  25070.9  13427.5  1697.7
    5992.99  25059.9  13454.5  1672.7
    5993.52  25078.9  13507.5  1655.7
    5993.97  25101.9  13489.5  1634.7
    5994.49  25111.9  13390.5  1600.7
    5995.02  25091.9  13248.5  1568.7
    5995.47  25090.9  13156.5  1544.7
    5995.99  25121.9  13108.5  1534.7
    5996.51  25111.9  13098.5  1528.7
    5996.96  25106.9  13124.5  1531.7
    5997.49  25093.9  13132.5  1533.7
    5998.01  25112.9  13133.5  1530.7
    5998.54  25101.9  13089.5  1518.7
    5998.99  25088.9  13025.5  1495.7
    5999.51  25075.9  12875.5  1453.7
    6000.04  25086.9  12636.5  1398.7
    6000.49  25072.9  12324.5  1339.7
    6001.01  25014.9  11796.5  1254.7
    6001.46  24905.9  11242.5  1173.7
    6001.99  24755.9  10535.5  1081.7
    6002.51  24709.9  9890.5   998.7
    6002.96  24753.9  9435.5   940.7
    6003.49  24923.9  9108.5   896.7
    6004.02  25042.9  8937.5   870.7
    6004.47  25082.9  8810.5   848.7
    6004.99  25070.9  8571.5   816.7
    6005.52  25040.9  8210.5   774.7
    6005.97  25045.9  7860.5   735.7
    6006.5  25057.9  7460.5   691.7
    6007.02  25022.9  7095.5   652.7
    6007.47  24996.9  6762.5   617.7
    6008  25007.9  6328.5   573.7
    6008.53  25025.9  5868.5   527.7
    6008.98  25010.9  5568.5   494.7
    6009.5  24989.9  5391.5   472.7
    6010.03  25004.9  5378.5   467.7
    6010.94  25004.7  5482.25   468.465
    6011.84  25010  5412.52   461.758
    6012.82  25001.8  5119.3   443.581
    6013.8  25013.1  4988.58   443.932
    6014.78  25036  5229.38   476.812
    6015.76  25043.4  5694.69   525.222
    6016.81  25051.3  6080.51   563.16
    6017.8  25041.7  6276.83   579.627
    6018.93  25082.7  6475.67   590.624
    6019.99  25094.2  6695.02   602.148
    6021.12  25103.2  6882.88   613.203
    6022.18  25104.8  6944.25   617.786
    6023.39  25149.8  6873.13   613.897
    6024.52  25183.4  6731.52   607.539
    6025.73  25211.6  6636.42   600.708
    6026.87  25232.2  6617.84   597.408
    6028.16  25255.4  6701.76   599.635
    6029.37  25293.1  6934.19   615.392
    6030.58  25339.3  7234.13   638.678
    6031.87  25372.1  7544.59   662.493
    6033.16  25404.4  7817.55   684.837
    6034.53  25440.2  8042.02   703.709
    6035.82  25491.5  8224.01   719.112
    6037.19  25543.4  8406.5   734.042
    6038.56  25578.8  8571.51   746.501
    6040  25623.7  8693.03   752.49
    6041.37  25660.1  8758.05   754.008
    6042.82  25707.1  8793.59   759.053
    6044.26  25767.6  8782.64   762.63
    6045.71  25822.6  8750.19   763.734
    6047.24  25867.1  8753.27   766.368
    6048.76  25931.2  8789.84   773.53
    6050.29  26005.8  8813.93   781.221
    6051.82  26070.9  8779.53   786.442
    6053.42  26133.5  8666.64   784.191
    6054.95  26195.7  8531.26   779.469
    6056.56  26257.4  8430.4   781.277
    6058.24  26324.6  8362.03   782.613
    6059.85  26413.4  8296.19   780.478
    6061.53  26444.6  8189.85   773.872
    6063.22  26465.4  8092.02   766.795
    6064.91  26546.8  8026.7   760.248
    6066.68  26616.6  7995.9   752.229
    6068.36  26693  8010.61   745.738
    6070.13  26786.9  8031.82   737.778
    6071.9  26886.3  8060.54   732.345
    6073.75  26956.3  8119.78   731.442
    6075.52  27033.8  8214.52   742.068
    6077.37  27147.8  8342.78   761.222
    6079.22  27239.3  8451.54   781.906
    6081.15  27340.4  8557.82   804.119
    6083  27441  8686.61   829.861
    6084.93  27545.1  8848.9   856.13
    6086.87  27634.7  9012.72   878.931
    6088.8  27743.9  9175.03   893.259
    6090.81  27837.6  9326.87   894.118
    6092.83  27952.8  9498.2   891.503
    6094.84  28077.5  9666.05   886.419
    6096.86  28205.8  9801.42   879.865
    6098.88  28297.6  9869.28   869.837
    6100.98  28406.9  9899.66   861.339
    6103.07  28531.7  9949.56   867.371
    6105.18  28665.1  10025   884.931
    6107.28  28782  10122.9   910.02
    6109.46  28903.4  10238.3   943.638
    6111.64  29044.4  10372.2   980.786
    6113.83  29184.8  10504.7  1011.46
    6116.01  29300.8  10607.6  1031.67
    6118.28  29449.4  10688.1  1044.4
    6120.47  29537.4  10738.1  1047.66
    6122.74  29688  10835.6  1054.46
    6125.01  29820.1  10949.5  1062.78
    6127.36  29962.7  11069.1  1077.63
    6129.64  30089.9  11170.1  1095.01
    6131.99  30226.6  11275.6  1111.91
    6134.35  30409.8  11380.6  1130.35
    6136.79  30546.5  11438.2  1140.32
    6139.15  30689.8  11487.2  1144.81
    6141.59  30826.6  11544.8  1150.83
    6144.04  30987.9  11598.9  1155.39
    6146.48  31112.7  11661.5  1155.47
    6148.93  31279.1  11757.6  1159.08
    6151.46  31412  11871.2  1163.22
    6153.99  31539.4  12026.3  1173.89
    6156.53  31732.3  12183.9  1189.09
    6159.06  31871.8  12257.1  1192.81
    6161.6  32025.8  12301.7  1185.07
    6164.22  32182.3  12350.9  1176.85
    6166.84  32390.3  12463.6  1179.17
    6169.47  32530.9  12584.8  1192.01
    6172.1  32689  12762.5  1222.38
    6174.81  32871.6  13016.7  1263.28
    6177.52  33057.8  13261.4  1304.71
    6180.23  33214.5  13431.6  1338.67
    6182.95  33380.7  13558.3  1365.15
    6185.67  33568.4  13694.6  1388.17
    6188.47  33743.6  13850.3  1408.72
    6191.27  33921.4  14022.6  1428.79
    6194.08  34065.7  14182.4  1450.39
    6196.89  34175.5  14378.7  1475.52
    6199.7  34356.9  14650.5  1510.19
    6202.6  34581.8  14959.8  1546.38
    6205.5  34731.2  15209.6  1578.09
    6208.4  34912.1  15417.9  1608.34
    6211.3  35091.6  15579.8  1636.12
    6214.21  35294.6  15739.1  1664.43
    6217.2  35480.1  15878  1682.26
    6220.2  35680.1  15981.4  1688.62
    6223.19  35873.7  16047.2  1691.52
    6226.19  36080.8  16132.6  1695.94
    6229.2  36269.4  16221.5  1692.89
    6232.28  36465.5  16359  1695.37
    6235.38  36598.2  16512.9  1699.38
    6238.47  36949.4  16811.3  1719.91
    6241.56  36350.1  16661.3  1695.98
    6244.75  37097.4  17122.7  1738.57
    6247.85  37282.1  17335.7  1765.7
    6251.04  37608.4  17619.2  1813.35
    6254.23  37812.2  17844.1  1857.54
    6257.43  38022.6  18052.6  1905.25
    6260.71  38221.5  18221.6  1948.49
    6263.91  38445.9  18388.2  1977.26
    6267.2  38627.8  18573.2  2002.56
    6270.49  38862.2  18819.7  2031.38
    6273.79  39060.2  19067.8  2066.74
    6277.17  39275.7  19345.3  2101.62
    6280.48  39464.8  19601.4  2138.04
    6283.86  39684.3  19854  2170.98
    6287.26  39882.4  20079.1  2196.45
    6290.65  40103  20291.7  2222.45
    6294.06  40341.1  20515.8  2251.98
    6297.54  40542.8  20735.4  2287.04
    6300.95  40763  20956.5  2320.63
    6304.45  40977.7  21157.2  2350.75
    6307.95  41154.9  21326.3  2378.39
    6311.54  41391.7  21567  2408.57
    6315.05  41659  21864.2  2441.27
    6318.56  41830.8  22145.9  2469.5
    6322.16  42077.1  22452.1  2497.27
    6325.77  42315  22780.8  2530.55
    6329.38  42537.4  23127  2565.38
    6333.07  42736.3  23459.7  2603.72
    6336.69  42964.8  23776.9  2642.6
    6340.4  43192.7  24079.7  2680.01
    6344.11  43419.2  24365  2721.94
    6347.83  43629.3  24613.7  2761.41
    6351.55  43846.8  24855  2795.4
    6355.27  44098.9  25125.8  2837.92
    6359.09  44310.5  25387.1  2878.97
    6362.82  44585.6  25692.9  2927.56
    6366.65  44799.3  25946.2  2974.66
    6370.47  45046.4  26242.1  3022.3
    6374.31  45283.1  26545.4  3070.47
    6378.23  45496.4  26880.2  3119.17
    6382.07  45740.1  27236.6  3166.39
    6386.01  45950.4  27570.5  3208.14
    6389.95  46183.2  27863.9  3255.43
    6393.89  46404.5  28150.8  3296.24
    6397.84  46644.4  28440.2  3338.58
    6401.88  46866.8  28761.1  3379.45
    6405.84  47102.7  29114.5  3425.85
    6409.89  47335.1  29473.4  3476.78
    6413.95  47551.1  29817.9  3525.23
    6418.01  47782.6  30147.8  3578.22
    6422.08  48019.6  30504.3  3632.73
    6426.15  48239.1  30886.3  3681.78
    6430.32  48471.2  31267.8  3732.35
    6434.4  48671.8  31616.8  3778.45
    6438.58  48926.9  31995.3  3824.08
    6442.76  49162.6  32362.3  3871.24
    6446.95  49403.7  32744.8  3928.93
    6451.23  49622.4  33148.9  3991.15
    6455.43  49842.7  33603.4  4063.89
    6459.72  50066.4  34066.5  4138.17
    6463.93  50354.7  34530  4207.98
    6468.24  50500.5  34906.1  4269.31
    6472.55  50753.8  35347.7  4334.17
    6476.95  50987.7  35770.8  4395.56
    6481.28  51170  36146.4  4449.48
    6485.61  51444.9  36577.6  4522.93
    6490.03  51685.4  36988.2  4583.91
    6494.46  51886.3  37363.3  4640.41
    6498.9  52091.8  37739  4695.45
    6503.34  52303.8  38139.2  4755.02
    6507.79  52543.4  38583.8  4820.11
    6512.34  52738.4  39006  4890.73
    6516.8  52972  39418.7  4959.89
    6521.35  53219.1  39820.9  5024.57
    6525.92  53389.8  40203.6  5092.78
    6530.49  53670.9  40704.9  5167.51
    6535.07  53885.6  41181.6  5240.78
    6539.65  54077.8  41641.8  5312.58
    6544.25  54284.6  42135.6  5387.91
    6548.94  54430.8  42595.9  5453.76
    6553.54  54626.6  43070.7  5528.14
    6558.24  54851.9  43588.9  5605.06
    6562.95  55005.8  44091.7  5684.5
    6567.67  55227.2  44627.1  5767.47
    6572.4  55478.1  45188.9  5853.97
    6577.22  55700.5  45695.2  5939
    6581.96  55895.4  46153  6014.55
    6586.79  56083.9  46620.4  6091.64
    6591.55  56328.9  47122.3  6177.25
    6596.4  56489.4  47555.6  6245.4
    6601.26  56686.5  48016.5  6330.08
    6606.12  56909.1  48515.9  6409.27
    6611.09  57104.2  49020.8  6492.01
    6615.97  57306.8  49570.2  6580.27
    6620.95  57551  50171.2  6673.06
    6625.85  57759.6  50724.6  6762.37
    6630.85  57998.8  51306.6  6858.22
    6635.85  58150.6  51812  6938.6
    6640.87  58335.8  52363  7031.5
    6645.89  58543.6  52961.5  7133.94
    6650.92  58698.9  53491.4  7224.9
    6655.96  58889.8  54068.9  7328.39
    6661.1  59119.1  54692.9  7432.41
    6666.15  59333  55289.5  7535.96
    6671.31  59450.4  55805.5  7624.04
    6676.47  59661.4  56383  7719.65
    6681.64  59785.8  56918.1  7810.78
    6686.82  59944.8  57454.7  7907.45
    6692.01  59981.4  57894.7  7978.64
    6697.3  59782.4  58110.3  8033.37
    6702.51  57532  56308.4  7804.62
    6707.72  61866.1  60935  8468.4
    6713.04  61825.7  61322.1  8546.71
    6718.37  61677.8  61606.7  8602.55
    6723.7  61729.5  62097.9  8691.92
    6729.05  61699.7  62511.5  8769.82
    6734.4  61679.4  62934.7  8855.25
    6739.77  61547.7  63274.3  8927.2
    6745.14  62234.5  64454.5  9115.69
    6750.61  61230.8  63902.2  9062.7
    6756  58802.6  61830.4  8796.24
    6761.5  62109  65799.1  9385.32
    6766.91  63117.9  67379.3  9632.91
    6772.42  61627.3  66277.1  9502.04
    6777.94  63494.2  68816.3  9894.7
    6783.48  63532.7  69346  9997.89
    6789.02  63517.6  69838.3  10091.6
    6794.57  63501.2  70328.1  10190.8
    6800.23  63167.2  70487.4  10241.6
    6805.8  60542.8  68079.1  9910.93
    6811.48  66084.8  74830.4  10922.8
    6817.07  65217.5  74430.3  10888.1
    6822.77  65082.6  74839.6  10973
    6828.47  65139.3  75471.4  11102.4
    6834.19  65169.5  76066.8  11213.4
    6839.92  65293.2  76772.6  11357.8
    6845.66  65307.4  77363  11466.9
    6851.4  65485.2  78143.8  11608.4
    6857.16  65605.5  78859.2  11743.5
    6863.03  65672.3  79545.1  11879.1
    6868.81  65827.7  80318.5  12028.2
    6874.7  65877.5  80968.4  12160.8
    6880.5  65948.9  81610.9  12295
    6886.41  66092.9  82382.8  12441.7
    6892.33  66160.3  83071.3  12578.9
    6898.26  66283.3  83851.2  12727.7
    6904.2  66348.8  84544.7  12867
    6910.15  66435.8  85298.7  13014.8
    6916.11  66508.4  86024.2  13158.2
    6922.09  66531.5  86705.2  13297.1
    6928.18  66605.1  87451.7  13454.5
    6934.17  66680.2  88195.7  13607.4
    6940.28  66819.9  89047.2  13770.9
    6946.3  66855.1  89747.3  13915.9
    6952.43  66942.8  90554.8  14078.4
    6958.57  67023  91353.9  14234.5
    6964.62  67040.8  92057.4  14382
    6970.78  67134.1  92862.5  14548.2
    6976.96  67195.9  93627.1  14713.8
    6983.15  67266.2  94419.2  14865
    6989.35  67339.1  95214.8  15035.7
    6995.66  67369.5  95962  15196.9
    7001.88  67524.4  96860.6  15378.7
    7008.12  67562.9  97621.7  15532
    7014.47  67606.8  98391.4  15692.8
    7020.72  67613.3  99113.6  15852.1
    7027.1  67583.3  99771.2  15995
    7033.38  67640.9  100565  16168.4
    7039.77  67750  101456  16346.3
    7046.18  67760.6  102201  16514.8
    7052.6  67863.7  103093  16697.8
    7059.04  67875.3  103846  16859.3
    7065.48  67915.5  104654  17039.4
    7071.94  67863.2  105348  17199.9
    7078.41  67927.5  106213  17386
    7084.9  67980.2  107057  17579.7
    7091.39  67976.5  107818  17750.8
    7097.9  67988.3  108592  17925.5
    7104.53  67980.6  109364  18104.8
    7111.06  67964.5  110078  18250.5