File: data/Cr/cr2o3_rt_003.xdi
# XDI/1.0
# Column.1: energy eV
# Column.2: i0
# Column.3: itrans
# Column.4: irefer
# Beamline.name: SSRL 2-3
# Beamline.notes: vert slits = 0.6mm
# Detector.I0: N2 15cm
# Detector.I1: N2 30cm
# Detector.I2: N2 15cm
# Element.edge: K
# Element.symbol: Cr
# Mono.d_spacing: 3.13550
# Mono.name: Si(111)
# Mono.notes: unfocused, detuned 75%, clockwise at E=5990eV
# Sample.formula: Cr2O3
# Sample.name: Cr2O3
# Sample.prep: powder on tape (5 layers)
# Sample.reference: Cr foil
# Sample.temperature: room temp
# Scan.start_time: 1997-04-17 17:30:13
# ///
#    Note: mono d_spacing is nominal!
#     exafs to K16
#     396  E XMU XMUR I0
#-------------
#   energy   i0   itrans  irefer
    5759.99  26807.9  9316.5  1189.7
    5769.98  26777.9  9505.5  1219.7
    5780.01  26738.9  9705.5  1254.7
    5790  26695.9  9905.5  1286.7
    5799.97  26624.9  10088.5  1319.7
    5810.03  26604.9  10299.5  1355.7
    5820  26533.9  10491.5  1390.7
    5830  26475.9  10688.5  1424.7
    5839.97  26437.9  10894.5  1460.7
    5849.98  26414.9  11120.5  1498.7
    5860.02  26343.9  11320.5  1533.7
    5870.02  26297.9  11526.5  1572.7
    5879.99  26244.9  11741.5  1608.7
    5890  26208.9  11962.5  1651.7
    5899.97  26132.9  12173.5  1688.7
    5909.98  26076.9  12395.5  1730.7
    5920.02  26014.9  12610.5  1769.7
    5930.03  25962.9  12833.5  1809.7
    5939.99  25894.9  13049.5  1852.7
    5950  25830.9  13259.5  1891.7
    5959.97  25765.9  13476.5  1933.7
    5969.97  25697.9  13688.5  1972.7
    5970.49  25700.9  13704.5  1974.7
    5971.01  25694.9  13712.5  1975.7
    5971.53  25642.9  13697.5  1973.7
    5971.97  25543.9  13657.5  1967.7
    5972.49  25382.9  13581.5  1956.7
    5973.01  25331.9  13566.5  1955.7
    5973.53  25438.9  13629.5  1965.7
    5973.98  25566.9  13713.5  1977.7
    5974.5  25697.9  13793.5  1989.7
    5975.02  25742.9  13830.5  1996.7
    5975.46  25763.9  13855.5  2001.7
    5975.98  25732.9  13848.5  1999.7
    5976.51  25727.9  13855.5  1998.7
    5977.03  25730.9  13870.5  2001.7
    5977.47  25738.9  13883.5  2007.7
    5977.99  25729.9  13891.5  2008.7
    5978.52  25718.9  13888.5  2008.7
    5979.04  25737.9  13913.5  2012.7
    5979.48  25731.9  13917.5  2012.7
    5980.01  25730.9  13930.5  2013.7
    5980.53  25714.9  13934.5  2013.7
    5980.97  25718.9  13948.5  2017.7
    5981.49  25717.9  13958.5  2018.7
    5982.02  25726.9  13974.5  2023.7
    5982.46  25717.9  13980.5  2025.7
    5982.99  25719.9  13989.5  2026.7
    5983.51  25745.9  14014.5  2028.7
    5984.03  25753.9  14037.5  2030.7
    5984.48  25745.9  14038.5  2031.7
    5985  25739.9  14044.5  2033.7
    5985.52  25719.9  14041.5  2032.7
    5985.97  25618.9  13994.5  2024.7
    5986.49  25230.9  13791.5  1992.7
    5987.02  24448.9  13368.5  1930.7
    5987.46  23115.9  12643.5  1824.7
    5987.99  22271.9  12195.5  1758.7
    5988.51  23346.9  12789.5  1840.7
    5989.03  24311.9  13319.5  1913.7
    5989.48  24715.9  13540.5  1936.7
    5990  25046.9  13715.5  1946.7
    5990.53  25211.9  13799.5  1922.7
    5990.98  25267.9  13793.5  1877.7
    5991.5  25325.9  13751.5  1818.7
    5992.02  25361.9  13655.5  1761.7
    5992.47  25379.9  13606.5  1726.7
    5992.99  25388.9  13633.5  1697.7
    5993.52  25388.9  13673.5  1678.7
    5993.97  25411.9  13654.5  1656.7
    5994.49  25419.9  13553.5  1623.7
    5995.02  25423.9  13425.5  1592.7
    5995.47  25412.9  13321.5  1569.7
    5995.99  25433.9  13267.5  1552.7
    5996.51  25426.9  13269.5  1550.7
    5996.96  25423.9  13296.5  1550.7
    5997.49  25416.9  13303.5  1554.7
    5998.01  25437.9  13302.5  1551.7
    5998.54  25415.9  13261.5  1539.7
    5998.99  25423.9  13207.5  1517.7
    5999.51  25410.9  13058.5  1478.7
    6000.04  25403.9  12815.5  1419.7
    6000.49  25401.9  12512.5  1361.7
    6001.01  25328.9  11982.5  1277.7
    6001.46  25222.9  11410.5  1195.7
    6001.99  25081.9  10702.5  1100.7
    6002.51  25024.9  10043.5  1014.7
    6002.96  25093.9  9597.5   959.7
    6003.49  25263.9  9248.5   911.7
    6004.02  25380.9  9070.5   884.7
    6004.47  25405.9  8940.5   862.7
    6004.99  25405.9  8706.5   830.7
    6005.52  25370.9  8346.5   788.699
    6005.97  25378.9  7996.5   750.7
    6006.5  25383.9  7588.5   704.7
    6007.02  25384.9  7225.5   665.7
    6007.47  25365.9  6899.5   630.7
    6008  25363.9  6455.5   584.7
    6008.53  25380.9  5987.5   537.7
    6008.98  25388.9  5675.5   506.7
    6009.5  25384.9  5487.5   484.7
    6010.03  25363.9  5459.5   474.7
    6010.94  25366.7  5558.25   477.465
    6011.84  25382  5505.52   468.758
    6012.82  25369.8  5209.3   449.581
    6013.8  25366.1  5059.58   448.932
    6014.78  25380  5282.38   480.812
    6015.76  25400.4  5759.69   531.222
    6016.81  25413.3  6162.5   571.16
    6017.8  25406.7  6364.83   586.627
    6018.93  25426.7  6560.67   600.624
    6019.99  25445.2  6781.02   611.148
    6021.12  25460.2  6975.88   624.203
    6022.18  25488.8  7054.25   628.786
    6023.39  25492.8  6967.13   622.897
    6024.52  25530.4  6825.52   617.539
    6025.73  25552.6  6732.43   608.708
    6026.87  25603.2  6718.84   607.408
    6028.16  25615.4  6799.75   609.635
    6029.37  25635.1  7025.19   623.392
    6030.58  25695.3  7333.14   647.678
    6031.87  25722.1  7643.59   671.493
    6033.16  25778.4  7931.55   693.837
    6034.53  25799.2  8155.03   711.709
    6035.82  25844.5  8338.01   728.111
    6037.19  25886.4  8519.51   744.042
    6038.56  25948.8  8696.51   756.501
    6040  25978.7  8815.02   765.49
    6041.37  26029.1  8878.05   770.008
    6042.82  26062.1  8912.59   772.054
    6044.26  26112.6  8900.64   774.63
    6045.71  26187.6  8874.2   774.734
    6047.24  26245.1  8874.27   778.368
    6048.76  26305.2  8914.84   783.53
    6050.29  26375.8  8936.94   790.221
    6051.82  26425.9  8895.53   794.442
    6053.42  26508.5  8791.64   793.191
    6054.95  26557.7  8653.27   791.469
    6056.56  26640.4  8552.39   790.277
    6058.24  26724.6  8492.03   791.613
    6059.85  26775.4  8409.18   789.478
    6061.53  26794.6  8300.85   784.872
    6063.22  26840.4  8209.02   777.795
    6064.91  26918.8  8146.71   772.248
    6066.68  26991.6  8108.89   763.229
    6068.36  27080  8124.6   755.738
    6070.13  27155.9  8144.81   750.777
    6071.9  27262.3  8179.54   742.345
    6073.75  27367.3  8243.78   742.442
    6075.52  27444.8  8342.52   753.068
    6077.37  27518.8  8457.78   771.222
    6079.22  27631.3  8574.54   792.905
    6081.15  27739.4  8681.82   817.119
    6083  27848  8816.61   840.861
    6084.93  27935.1  8979.91   869.131
    6086.87  28042.7  9148.72   892.931
    6088.8  28146.9  9309.03   905.26
    6090.81  28245.6  9469.86   909.117
    6092.83  28346.8  9640.2   906.503
    6094.84  28468.5  9812.05   903.419
    6096.86  28579.8  9945.41   895.864
    6098.88  28711.6  10020.3   885.837
    6100.98  28844.9  10062.7   880.339
    6103.07  28917.7  10095.6   883.371
    6105.18  29035.1  10162   896.931
    6107.28  29161  10258.9   926.021
    6109.46  29277.4  10372.3   958.639
    6111.64  29407.4  10506.2   992.787
    6113.83  29539.8  10632.7  1022.46
    6116.01  29692.8  10747.6  1045.67
    6118.28  29809.4  10820.1  1058.4
    6120.47  29948.4  10890.1  1065.66
    6122.74  30082  10981.6  1071.46
    6125.01  30207.1  11095.6  1079.78
    6127.36  30330.7  11202.1  1091.63
    6129.64  30483.9  11319.1  1110.01
    6131.99  30610.6  11421.6  1128.91
    6134.35  30768.8  11514.6  1144.35
    6136.79  30908.5  11573.2  1152.32
    6139.15  31049.8  11627.2  1158.81
    6141.59  31226.6  11695.8  1165.83
    6144.04  31373.9  11745.9  1168.39
    6146.48  31501.7  11806.5  1170.47
    6148.93  31681.1  11909.6  1174.08
    6151.46  31841  12037.2  1178.22
    6153.99  31966.4  12190.3  1190.89
    6156.53  32150.3  12343.9  1204.08
    6159.06  32297.8  12423.1  1205.81
    6161.6  32454.8  12461.7  1200.07
    6164.22  32626.3  12518.9  1192.85
    6166.84  32794.3  12614.6  1194.17
    6169.47  32962.9  12754.8  1212.01
    6172.1  33120  12930.5  1240.38
    6174.81  33294.6  13179.7  1281.28
    6177.52  33474.8  13424.4  1324.71
    6180.23  33624.5  13597.6  1356.67
    6182.95  33816.7  13734.3  1385.15
    6185.67  33997.4  13864.6  1408.17
    6188.47  34177.6  14033.3  1427.71
    6191.27  34347.4  14199.6  1449.79
    6194.08  34523.7  14375.4  1473.39
    6196.89  34726.5  14609.7  1502.52
    6199.7  34881.9  14877.5  1533.19
    6202.6  35109.8  15191.8  1570.38
    6205.5  35266.2  15449.6  1603.09
    6208.4  35453.1  15661.9  1632.34
    6211.3  35663.6  15841.8  1663.12
    6214.21  35845.6  15993.1  1685.43
    6217.2  36034.1  16134  1709.26
    6220.2  36199.1  16221.4  1719.62
    6223.19  36435.7  16311.2  1722.52
    6226.19  36614.8  16378.6  1721.94
    6229.2  36825.4  16481.5  1725.89
    6232.28  37005.5  16611  1726.37
    6235.38  37178.2  16781.9  1731.38
    6238.47  37498.4  17066.3  1749.91
    6241.56  36878.1  16909.3  1728.98
    6244.75  37657.4  17380.7  1772.57
    6247.85  37894.1  17618.7  1803.7
    6251.04  38219.4  17909.2  1849.35
    6254.23  38414.2  18132.1  1890.54
    6257.43  38642.6  18348.6  1943.25
    6260.71  38857.5  18533.6  1988.49
    6263.91  39043.9  18685.2  2015.26
    6267.2  39248.8  18872.2  2041.55
    6270.49  39447.2  19112.7  2071.38
    6273.79  39671.2  19371.8  2102.74
    6277.17  39916.7  19671.3  2142.62
    6280.48  40125.8  19942.4  2179.04
    6283.86  40333.3  20193  2210.98
    6287.26  40541.4  20427.1  2239.45
    6290.65  40751  20637.7  2263.45
    6294.06  40997.1  20862.8  2292.98
    6297.54  41221.8  21092.4  2329.04
    6300.95  41408  21298.5  2360.63
    6304.45  41620.7  21498.2  2391.75
    6307.95  41828.9  21695.3  2416.39
    6311.54  42053.7  21926  2446.57
    6315.05  42317  22220.2  2479.27
    6318.56  42512.8  22511.9  2511.5
    6322.16  42705.1  22792.1  2534.26
    6325.77  42973  23144.8  2567.55
    6329.38  43169.4  23476  2600.38
    6333.07  43396.3  23817.7  2639.72
    6336.69  43633.8  24156.9  2678.6
    6340.4  43868.7  24464.7  2718.01
    6344.11  44082.2  24745  2759.94
    6347.83  44324.3  25008.7  2800.41
    6351.55  44564.8  25271  2843.4
    6355.27  44805.9  25526.8  2881.92
    6359.09  45044.5  25801.1  2925.98
    6362.82  45254.6  26066.9  2973.56
    6366.65  45512.3  26369.2  3026.66
    6370.47  45698.4  26634.1  3074.3
    6374.31  45944.1  26957.4  3122.47
    6378.23  46158.4  27280.2  3165.16
    6382.07  46393.1  27648.6  3214.39
    6386.01  46610.4  27982.5  3262.14
    6389.95  46846.2  28278.9  3301.43
    6393.89  47104.5  28597.8  3351.24
    6397.84  47304.4  28863.2  3391.58
    6401.88  47556.8  29195.1  3435.45
    6405.84  47782.7  29540.5  3482.85
    6409.89  48011.1  29906.4  3533.77
    6413.95  48237.1  30252.9  3579.23
    6418.01  48452.6  30579.8  3632.22
    6422.08  48707.6  30958.3  3688.73
    6426.15  48938.1  31331.3  3744.78
    6430.32  49163.2  31715.8  3796.35
    6434.4  49400.8  32098.8  3840.45
    6438.58  49613.9  32466.3  3884.08
    6442.76  49836.6  32824.3  3931.24
    6446.95  50123.7  33239.8  3992.93
    6451.23  50328.4  33635.9  4057.15
    6455.43  50575.7  34107.4  4128.89
    6459.72  50805.4  34574.5  4202.17
    6463.93  51034.7  35007  4268.97
    6468.24  51259.5  35444.1  4335.31
    6472.55  51476.8  35866.7  4398.17
    6476.95  51700.7  36285.8  4461.56
    6481.28  51913  36672.4  4525.48
    6485.61  52150.9  37088.6  4587.93
    6490.03  52390.4  37507.2  4650.91
    6494.46  52636.3  37919.3  4711.41
    6498.9  52883.8  38339  4768.45
    6503.34  53089.8  38736.2  4827.02
    6507.79  53308.4  39173.8  4895.11
    6512.34  53546.4  39632  4972.73
    6516.8  53764  40027.7  5037.89
    6521.35  54025.1  40455.9  5104.56
    6525.92  54299.8  40919.6  5182.78
    6530.49  54484.9  41356.9  5255.52
    6535.07  54667.6  41801.6  5320.78
    6539.65  54950.8  42333.8  5402.58
    6544.25  55118.6  42795.6  5470.91
    6548.94  55308.8  43300.9  5545.76
    6553.54  55506.6  43790.7  5623.14
    6558.24  55738.9  44307.9  5697.06
    6562.95  55925.8  44851.7  5782.5
    6567.67  56156.2  45399.1  5874.47
    6572.4  56424.1  45981.9  5959.97
    6577.22  56627.5  46476.2  6044.99
    6581.96  56842.4  46964.1  6124.56
    6586.79  57047.9  47447.4  6206.64
    6591.55  57283.9  47947.3  6293.26
    6596.4  57467.4  48416.6  6370.4
    6601.26  57698.5  48907.5  6454.07
    6606.12  57905.1  49383.9  6528.28
    6611.09  58057.2  49867.8  6608.01
    6615.97  58228.8  50399.2  6697.26
    6620.95  58427  50962.2  6788.06
    6625.85  58684.6  51550.6  6882.38
    6630.85  58864.8  52081.5  6969.22
    6635.85  59051.6  52628  7060.6
    6640.87  59246.8  53214  7154.5
    6645.89  59437.6  53776.5  7251.94
    6650.92  59661.9  54384.4  7353.9
    6655.96  59818.8  54940.9  7449.39
    6661.1  59987.1  55532.9  7549.41
    6666.15  60200  56147.5  7651.96
    6671.31  60339.4  56655.5  7740.04
    6676.47  60556.4  57267  7844.65
    6681.64  60737.8  57831.1  7937.79
    6686.82  60823.8  58323.7  8026.45
    6692.01  60833.4  58711.7  8103.65
    6697.3  60710.4  59003.3  8165.37
    6702.51  58474  57238.4  7936.62
    6707.72  62661.1  61724  8580.4
    6713.04  62694.7  62200.1  8670.71
    6718.37  62584.8  62510.7  8734.56
    6723.7  62624.5  62994.9  8822.92
    6729.05  62713.7  63546.5  8921.82
    6734.4  62633.4  63930.7  9002.25
    6739.77  62445.7  64208.3  9059.2
    6745.14  63165.5  65424.5  9258.69
    6750.61  62240.8  64964.2  9213.7
    6756  59784.6  62852.4  8943.24
    6761.5  62966  66698.1  9513.32
    6766.91  63976.9  68273.3  9762.92
    6772.42  62524.3  67236.1  9648.04
    6777.94  64458.2  69829.3  10049.7
    6783.48  64424.7  70291  10145.9
    6789.02  64318.6  70690.3  10230.6
    6794.57  64345.2  71231.1  10330.8
    6800.23  63995.2  71367.4  10379.6
    6805.8  61310.8  68896.1  10048.9
    6811.48  66977.8  75802.4  11081.8
    6817.07  66124.5  75425.3  11049.1
    6822.77  65948.6  75810.6  11132
    6828.47  66007.3  76443.4  11255.4
    6834.19  66095.5  77113.8  11381.4
    6839.92  66219.2  77845.6  11519.8
    6845.66  66310.4  78541  11659.9
    6851.4  66390.2  79218.9  11784.4
    6857.16  66479.5  79911.2  11918.5
    6863.03  66565.3  80600.1  12052
    6868.81  66725.7  81391.5  12201.2
    6874.7  66788.5  82069.5  12336.8
    6880.5  66881.9  82767.9  12473
    6886.41  66950.9  83440.8  12607.7
    6892.33  67012.3  84147.3  12744.9
    6898.26  66974.3  84711.2  12866.7
    6904.2  67037.8  85412.7  13008
    6910.15  67136.8  86183.7  13163.8
    6916.11  67185.4  86902.2  13308.2
    6922.09  67213.5  87602.2  13450.1
    6928.18  67253.1  88324.7  13594.5
    6934.17  67359.2  89094.7  13755.4
    6940.28  67465.9  89883.2  13913.9
    6946.3  67435.1  90523.3  14050.9
    6952.43  67556.8  91386.8  14227.4
    6958.57  67556  92092.9  14370.5
    6964.62  67684.8  92932.4  14535
    6970.78  67792.1  93784.5  14704.2
    6976.96  67811.9  94500.1  14861.8
    6983.15  67983.2  95436.2  15043
    6989.35  67958.1  96079.8  15188.7
    6995.66  67982.5  96811  15339.9
    7001.88  68041.4  97604.6  15506.7
    7008.12  68083.9  98373.7  15668
    7014.47  68233.8  99288.4  15842.8
    7020.72  68218.3  99976.6  15986.1
    7027.1  68256.3  100749  16157
    7033.38  68270.9  101498  16317.4
    7039.77  68279  102246  16482.3
    7046.18  68344.6  103079  16650.8
    7052.6  68525.7  104089  16856.8
    7059.04  68487.3  104787  17022.3
    7065.48  68550.5  105644  17204.3
    7071.94  68575.2  106467  17391.9
    7078.41  68683.5  107412  17582
    7084.9  68692.2  108187  17756.7
    7091.39  68741.5  109025  17946.8
    7097.9  68717.3  109737  18113.5
    7104.53  68658.6  110439  18268.8
    7111.06  68463.5  110897  18382.5