File: data/Cr/cr2o3_100K_001.xdi
# XDI/1.0
# Column.1: energy eV
# Column.2: i0
# Column.3: itrans
# Column.4: irefer
# Beamline.name: SSRL 2-3
# Beamline.notes: vert slits = 0.6mm
# Detector.I0: N2 15cm
# Detector.I1: N2 30cm
# Detector.I2: N2 15cm
# Element.edge: K
# Element.symbol: Cr
# Mono.d_spacing: 3.13550
# Mono.name: Si(111)
# Mono.notes: unfocused, detuned 75%, clockwise at E=5990eV
# Sample.formula: Cr2O3
# Sample.name: Cr2O3
# Sample.prep: powder on tape (4 layers)
# Sample.reference: Cr foil
# Sample.temperature: 100K
# Scan.start_time: 1997-04-18 21:40:35
# ///
#    Note: mono d_spacing is nominal!
#     exafs to K16
#     396  E XMU XMUR I0
#-------------
#   energy   i0   itrans  irefer
    5759.99  210049  10935.7  1395.3
    5769.98  210032  11148.7  1432.3
    5780.01  209822  11360.7  1469.3
    5790  209655  11572.7  1504.3
    5799.97  209475  11784.7  1543.3
    5810.03  209389  12008.7  1583.3
    5820  209240  12224.7  1620.3
    5830  209025  12454.7  1660.3
    5839.97  208881  12680.7  1700.3
    5849.98  208643  12903.7  1742.3
    5860.02  208693  13145.7  1783.3
    5870.02  208261  13365.7  1826.3
    5879.99  208016  13593.7  1868.3
    5890  207811  13833.7  1911.3
    5899.97  207600  14074.7  1955.3
    5909.98  207384  14313.7  2001.3
    5920.02  206827  14530.7  2043.3
    5930.03  206425  14752.7  2086.3
    5939.99  206425  15009.7  2134.3
    5950  206007  15232.7  2177.3
    5959.97  205723  15461.7  2222.3
    5969.97  205411  15672.7  2262.3
    5970.49  205235  15679.7  2263.3
    5971.01  204949  15660.7  2262.3
    5971.53  203831  15583.7  2250.3
    5971.97  202589  15500.7  2239.3
    5972.49  202098  15473.7  2236.3
    5973.01  203289  15568.7  2252.3
    5973.53  204817  15701.7  2271.3
    5973.98  205555  15771.7  2281.3
    5974.5  205697  15789.7  2282.3
    5975.02  205871  15818.7  2287.3
    5975.46  205736  15814.7  2288.3
    5975.98  205778  15827.7  2290.3
    5976.51  205893  15847.7  2293.3
    5977.03  205747  15847.7  2295.3
    5977.47  205830  15860.7  2295.3
    5977.99  205715  15861.7  2297.3
    5978.52  206012  15892.7  2303.3
    5979.04  205887  15895.7  2303.3
    5979.48  205680  15893.7  2302.3
    5980.01  205812  15909.7  2305.3
    5980.53  205931  15924.7  2306.3
    5980.97  206035  15939.7  2309.3
    5981.49  205793  15926.7  2308.3
    5982.02  206151  15965.7  2314.3
    5982.46  206248  15979.7  2317.3
    5982.99  206157  15980.7  2315.3
    5983.51  206129  15983.7  2317.3
    5984.03  206177  15993.7  2316.3
    5984.48  206045  15988.7  2317.3
    5985  205631  15954.7  2310.3
    5985.52  203968  15831.7  2292.3
    5985.97  200259  15543.7  2249.3
    5986.49  190871  14816.7  2143.3
    5987.02  178977  13882.7  2007.3
    5987.46  179932  13962.7  2017.3
    5987.99  190157  14757.7  2126.3
    5988.51  196467  15232.7  2185.3
    5989.03  200225  15503.7  2209.3
    5989.48  201901  15598.7  2201.3
    5990  202883  15610.7  2154.3
    5990.53  203315  15499.7  2074.3
    5990.98  203700  15319.7  1999.3
    5991.5  203976  15072.7  1925.3
    5992.02  203922  14999.7  1881.3
    5992.47  204186  15091.7  1867.3
    5992.99  204437  15116.7  1844.3
    5993.52  203934  14856.7  1791.3
    5993.97  203855  14596.7  1740.3
    5994.49  204205  14290.7  1690.3
    5995.02  204254  14055.7  1651.3
    5995.47  204242  13986.7  1636.3
    5995.99  204151  14016.7  1639.3
    5996.51  204063  14064.7  1645.3
    5996.96  204124  14059.7  1643.3
    5997.49  204348  14018.7  1634.3
    5998.01  204130  13896.7  1607.3
    5998.54  204183  13677.7  1562.3
    5998.99  204200  13331.7  1499.3
    5999.51  203956  12676.7  1397.3
    6000.04  203846  11779.7  1270.3
    6000.49  203450  10814.7  1146.3
    6001.01  202219  9489.7   986.3
    6001.46  201039  8417.7   861.3
    6001.99  200932  7393.7   745.3
    6002.51  202310  6642.7   661.3
    6002.96  203522  6280.7   620.3
    6003.49  204198  6073.7   591.3
    6004.02  204236  5838.7   564.3
    6004.47  204125  5529.7   528.3
    6004.99  203906  5038.7   480.3
    6005.52  204129  4506.7   425.3
    6005.97  203904  4110.7   387.3
    6006.5  203895  3723.7   347.3
    6007.02  204021  3290.7   305.3
    6007.47  204019  2884.7   265.3
    6008  203933  2466.7   225.3
    6008.53  203655  2211.7   200.3
    6008.98  203736  2147.7   193.3
    6009.5  203887  2175.7   193.3
    6010.03  203760  2242.7   198.3
    6010.94  203607  2254.46   198.064
    6011.84  203650  2069.73   184.358
    6012.82  203869  1910.51   175.181
    6013.8  203814  1980.81   184.534
    6014.78  204061  2321.62   219.415
    6015.76  204043  2662.94   252.826
    6016.81  204384  2889.78   272.765
    6017.8  204321  3020.13   284.234
    6018.93  204342  3229   299.233
    6019.99  204497  3424.38   312.76
    6021.12  204615  3543.27   321.817
    6022.18  205136  3515.68   321.402
    6023.39  205187  3343.6   307.518
    6024.52  205289  3195.03   295.162
    6025.73  205477  3132.98   291.335
    6026.87  206001  3145.44   290.038
    6028.16  206194  3308.42   301.27
    6029.37  206324  3584.9   324.031
    6030.58  206499  3892.91   350.321
    6031.87  206776  4197.42   376.141
    6033.16  207257  4460.45   397.49
    6034.53  207624  4680.99   416.367
    6035.82  207779  4853.05   429.774
    6037.19  208149  5040.62   447.711
    6038.56  208717  5192.7   458.176
    6040  209361  5276.3   463.171
    6041.37  209514  5308.41   465.695
    6042.82  209693  5297.03   465.748
    6044.26  210479  5243.17   463.331
    6045.71  210934  5198.82   460.442
    6047.24  211580  5213.99   464.083
    6048.76  211865  5228.66   466.252
    6050.29  212446  5194.86   466.952
    6051.82  212934  5084.56   463.181
    6053.42  213737  4908.78   451.938
    6054.95  214277  4740.51   441.225
    6056.56  214809  4626.76   435.041
    6058.24  215368  4530.52   430.386
    6059.85  215891  4402.79   421.26
    6061.53  216284  4266.58   410.664
    6063.22  216827  4151.88   400.597
    6064.91  217318  4055.69   389.059
    6066.68  218003  4017.02   382.05
    6068.36  218727  4015.87   377.57
    6070.13  219466  4006.22   373.621
    6071.9  220492  4016.09   370.199
    6073.75  221130  4068.47   374.307
    6075.52  221970  4158.37   383.944
    6077.37  222581  4254.78   396.111
    6079.22  223443  4335.7   410.807
    6081.15  224102  4401.14   422.031
    6083  225039  4514.09   439.786
    6084.93  225954  4663.55   459.069
    6086.87  226812  4807.53   473.881
    6088.8  227800  4940.02   485.223
    6090.81  228520  5073.03   489.094
    6092.83  229596  5225.55   491.494
    6094.84  230792  5371.58   495.423
    6096.86  231536  5452.12   491.882
    6098.88  232565  5468.18   484.87
    6100.98  233533  5455.75   480.387
    6103.07  234708  5466.84   484.433
    6105.18  235565  5504.44   496.008
    6107.28  236635  5587.56   514.112
    6109.46  237738  5691.18   536.746
    6111.64  238797  5795.32   557.909
    6113.83  240109  5886.98   576.601
    6116.01  241229  5943.15   587.822
    6118.28  242263  5961.83   589.573
    6120.47  243371  5983.02   592.853
    6122.74  244360  6043.73   596.662
    6125.01  245560  6125.95   603
    6127.36  246644  6198.69   612.868
    6129.64  248065  6272.94   625.264
    6131.99  249323  6335.71   634.191
    6134.35  250603  6364.98   640.645
    6136.79  251952  6347.77   640.629
    6139.15  253068  6332.08   639.143
    6141.59  254570  6327.89   637.185
    6144.04  255650  6331.22   636.757
    6146.48  256973  6356.07   637.857
    6148.93  258537  6415.43   640.488
    6151.46  259844  6517.3   645.648
    6153.99  261222  6652.69   656.336
    6156.53  262389  6744.58   663.554
    6159.06  263894  6754   661.302
    6161.6  265217  6712.92   651.578
    6164.22  266638  6700.36   643.383
    6166.84  268033  6731.32   645.718
    6169.47  269417  6814.78   655.582
    6172.1  271094  6977.76   677.974
    6174.81  272407  7195.26   707.897
    6177.52  273907  7399.27   735.349
    6180.23  275531  7510.79   755.329
    6182.95  277097  7559.82   766.839
    6185.67  278469  7606.37   778.878
    6188.47  280043  7700.43   790.447
    6191.27  281824  7811.01   804.544
    6194.08  283461  7937.1   819.17
    6196.89  284970  8123.71   841.327
    6199.7  286899  8396.82   872.012
    6202.6  288532  8677.46   903.228
    6205.5  290031  8913.59   931.97
    6208.4  291423  9061.25   951.243
    6211.3  293297  9159.43   966.044
    6214.21  294666  9217.11   978.376
    6217.2  296326  9272.31   988.236
    6220.2  298009  9270.02   987.625
    6223.19  299670  9219.25   979.545
    6226.19  301448  9191.98   969.992
    6229.2  303104  9187.24   963.971
    6232.28  304967  9243   961.476
    6235.38  304125  9292.29   963.512
    6238.47  309361  9572.07   988.076
    6241.56  302931  9467.39   972.172
    6244.75  310724  9788.2  1004.79
    6247.85  313919  9989.54  1028.95
    6251.04  315815  10171.4  1057.63
    6254.23  317671  10338.7  1089.84
    6257.43  319862  10479.6  1117.58
    6260.71  321737  10556  1135.85
    6263.91  323572  10592.9  1145.65
    6267.2  325478  10695.3  1160.97
    6270.49  327445  10858.3  1181.83
    6273.79  329282  11052.7  1205.22
    6277.17  331196  11265.7  1232.13
    6280.48  333339  11482.1  1258.58
    6283.86  335289  11669.1  1280.55
    6287.26  337191  11827.6  1298.05
    6290.65  338748  11939.6  1312.09
    6294.06  340596  12047.2  1327.65
    6297.54  342611  12180.2  1349.74
    6300.95  344736  12313.7  1370.36
    6304.45  347004  12394.8  1385.51
    6307.95  348804  12452.4  1392.19
    6311.54  350572  12566.5  1407.39
    6315.05  352531  12760.1  1425.13
    6318.56  354542  12997.2  1452.39
    6322.16  356749  13225.8  1475.19
    6325.77  358853  13463  1500.51
    6329.38  360701  13746.7  1530.37
    6333.07  362936  14054.8  1565.75
    6336.69  365279  14308.5  1595.66
    6340.4  367270  14526.7  1622.1
    6344.11  369508  14719.4  1647.07
    6347.83  371383  14828.7  1668.57
    6351.55  373602  14947.4  1688.6
    6355.27  375708  15067.7  1711.16
    6359.09  377562  15207.4  1732.24
    6362.82  379557  15363.7  1763.86
    6366.65  381583  15515.5  1790.01
    6370.47  383484  15665.8  1816.68
    6374.31  385600  15855.6  1843.88
    6378.23  387794  16118  1874.62
    6382.07  390031  16416.8  1916.88
    6386.01  392038  16664.2  1946.67
    6389.95  394236  16824.1  1972.99
    6393.89  396724  16968.5  1994.84
    6397.84  398947  17119.4  2015.22
    6401.88  401068  17304.8  2040.13
    6405.84  403476  17558.7  2074.57
    6409.89  405330  17801.2  2105.53
    6413.95  407106  18008.1  2133.03
    6418.01  409400  18226.6  2166.05
    6422.08  411622  18446.6  2201.61
    6426.15  413579  18699.1  2233.69
    6430.32  415729  18981.1  2267.31
    6434.4  418003  19226.6  2299.45
    6438.58  420686  19470.7  2331.12
    6442.76  422387  19641.2  2352.32
    6446.95  424802  19885.3  2389.05
    6451.23  427311  20206.9  2439.31
    6455.43  429055  20578  2498.09
    6459.72  431168  20986.6  2559.41
    6463.93  433738  21338.7  2611.26
    6468.24  436235  21680.4  2661.64
    6472.55  438397  21980.5  2700.54
    6476.95  440541  22253.2  2741.97
    6481.28  442924  22514.3  2783.93
    6485.61  445161  22775  2824.43
    6490.03  447285  23028.2  2863.45
    6494.46  449870  23265  2903
    6498.9  452238  23493.2  2931.08
    6503.34  454049  23707.9  2957.69
    6507.79  455855  23991.2  3001.83
    6512.34  458263  24333  3056.5
    6516.8  460441  24551.3  3090.69
    6521.35  462881  24736.1  3129.42
    6525.92  465325  24998.4  3172.67
    6530.49  467722  25327.2  3229.46
    6535.07  469670  25640.5  3276.77
    6539.65  471530  25966.4  3322.62
    6544.25  473363  26334.7  3376.98
    6548.94  475398  26728.7  3432.89
    6553.54  477459  27092  3486.32
    6558.24  479809  27478.9  3543.28
    6562.95  481765  27908.4  3603.77
    6567.67  483842  28360.3  3668.79
    6572.4  485861  28778.7  3730.33
    6577.22  488144  29158.7  3788.41
    6581.96  490703  29481.2  3842.01
    6586.79  492871  29771.2  3893.15
    6591.55  495197  30083.7  3947.81
    6596.4  497467  30336.7  3995.01
    6601.26  499516  30573.2  4037.73
    6606.12  502060  30860.3  4083.98
    6611.09  504425  31208.8  4139.76
    6615.97  506372  31628.9  4207.07
    6620.95  508391  32079.5  4281.91
    6625.85  510920  32517.6  4348.28
    6630.85  513633  32936.2  4411.18
    6635.85  516386  33394.3  4487.6
    6640.87  517700  33757  4550.56
    6645.89  519906  34208.1  4621.05
    6650.92  522049  34659.8  4695.06
    6655.96  523772  35076  4761.6
    6661.1  525452  35526.7  4838.67
    6666.15  527138  35922.9  4902.27
    6671.31  529172  36325.6  4966.41
    6676.47  531276  36716.8  5035.07
    6681.64  533200  37124.6  5105.26
    6686.82  535037  37540.9  5173.98
    6692.01  535782  37817.6  5221.23
    6697.3  535635  38060.9  5273
    6702.51  510926  36482.7  5067.31
    6707.72  555403  39996  5560.15
    6713.04  551404  39990.9  5574.52
    6718.37  551746  40291.2  5634.41
    6723.7  551980  40615.1  5685.83
    6729.05  553024  41008.5  5758.78
    6734.4  553476  41382.3  5825.26
    6739.77  560432  42239.7  5955.27
    6745.14  558821  42428.6  6005.82
    6750.61  546900  41855.1  5940.89
    6756  560058  43215  6151.49
    6761.5  554798  43113.5  6148.61
    6766.91  568581  44599.4  6381.27
    6772.42  558991  44246.9  6351.46
    6777.94  573467  45733.9  6579.17
    6783.48  574566  46155.4  6656.41
    6789.02  575327  46544.4  6729.19
    6794.57  575994  46919.9  6810.49
    6800.23  573664  47063  6850.33
    6805.8  544448  45372.6  6619.69
    6811.48  593100  49495.6  7237.58
    6817.07  591340  49791.2  7295
    6822.77  591779  50276.4  7387.95
    6828.47  593242  50809  7483.42
    6834.19  594603  51327.1  7576.43
    6839.92  596183  51873.7  7678.97
    6845.66  597793  52476.9  7789.03
    6851.4  599721  53072.5  7896.63
    6857.16  601520  53641.7  8007.75
    6863.03  602872  54223.4  8109.41
    6868.81  604516  54797.7  8219.59
    6874.7  606167  55326.4  8317.3
    6880.5  608307  55888.6  8425.54
    6886.41  608896  56342.3  8519.31
    6892.33  610529  56905.6  8622.61
    6898.26  611673  57434.4  8732.45
    6904.2  613758  58076.7  8853.8
    6910.15  615017  58689.5  8969.69
    6916.11  616618  59326.8  9093.11
    6922.09  617488  59886.6  9204.05
    6928.18  619018  60530  9334.52
    6934.17  620550  61129.9  9452.54
    6940.28  622347  61811.3  9587.06
    6946.3  623720  62461.2  9707.13
    6952.43  625263  63150.5  9847.71
    6958.57  626440  63823.5  9979.84
    6964.62  628125  64527.8  10106.5
    6970.78  629990  65247.8  10251.7
    6976.96  632004  65993.3  10399.4
    6983.15  633037  66632.3  10533.6
    6989.35  634264  67247.8  10655.4
    6995.66  635730  67924.7  10788.7
    7001.88  637670  68646.3  10927.5
    7008.12  638885  69298.3  11055.9
    7014.47  640134  69907.8  11185.7
    7020.72  641802  70579.9  11316.2
    7027.1  642451  71174.4  11441.1
    7033.38  643462  71810.5  11575.6
    7039.77  645760  72648.1  11734.6
    7046.18  647164  73356.2  11877.1
    7052.6  648456  74060.8  12020.2
    7059.04  649530  74790  12166.7
    7065.48  651001  75567.6  12325.9
    7071.94  652609  76384.7  12487.5
    7078.41  654270  77217.5  12653.7
    7084.9  654707  77880.6  12802.4
    7091.39  656214  78721.3  12969.6
    7097.9  656890  79370.5  13118.4
    7104.53  658319  80088.3  13269.7
    7111.06  659603  80837.5  13423.5