File: data/Cr/cr2o3_ssrl4_1_rt_002.xdi
# XDI/1.0
# Column.1: energy eV
# Column.2: i0
# Column.3: itrans
# Column.4: irefer
# Beamline.name: SSRL 4-1
# Detector.I0: N2 15cm
# Detector.I1: N2 30cm
# Detector.I2: N2 15cm
# Element.edge: K
# Element.symbol: Cr
# Mono.d_spacing: 3.13550
# Mono.name: Si(111)
# Mono.notes: unfocused, detuned 30%,counter clockwise at E=6200eV
# Sample.formula: Cr2O3
# Sample.name: Cr2O3 chromium sesquioxide
# Sample.prep: powder, mixed 1:100 with B(OH)3 by wt
# Sample.reference: none
# Sample.temperature: room temperature
# Scan.start_time: 1997-01-20 20:45:03
# ///
#    Note: mono d_spacing is nominal!
#     exafs to K15: not great data!!  fluorescence signal included
#     381  E XMU XMUF I0
#-------------
#   energy   i0   itrans  irefer
    5789  521696  40205.7  39346.7
    5799.62  523760  41270.7  40380
    5810.25  525815  42352.7  41428
    5820.88  527417  43412.7  42454.8
    5831.5  529231  44532.7  43541.8
    5842.12  531130  45686.7  44658.3
    5852.75  533234  46882.7  45817.1
    5863.37  534603  48038.7  46933.8
    5874  536524  49292.7  48142.5
    5884.62  538249  50536.7  49345.5
    5895.25  539890  51824.7  50589.5
    5905.88  541402  53122.7  51842.5
    5916.5  542919  54456.7  53126.7
    5927.12  544591  55844.7  54456.1
    5937.75  545967  57245.7  55806
    5948.38  547618  58693.7  57204.4
    5959  549142  60112.7  58564.3
    5959.76  549418  60233.7  58678.6
    5960.52  549235  60311.7  58753.3
    5961.27  549509  60441.7  58877.9
    5962.03  549865  60562.7  58994
    5962.79  549857  60640.7  59068.6
    5963.54  550257  60776.7  59200
    5964.3  550166  60869.7  59287.1
    5965.06  550289  60978.7  59392.2
    5965.82  550189  61037.7  59447.4
    5966.58  550295  61158.7  59562.1
    5967.33  550488  61274.7  59674
    5968.09  550547  61366.7  59760.6
    5968.85  550698  61458.7  59847.3
    5969.6  550979  61576.7  59960.2
    5970.36  550791  61637.7  60019
    5971.12  550824  61698.7  60075.8
    5971.88  550748  61669.7  60043.7
    5972.64  549540  61447.7  59825.7
    5973.39  547362  61406.7  59779.8
    5974.15  545980  61766.7  60128.5
    5974.91  545683  62080.7  60432
    5975.67  546087  62138.7  60485.9
    5976.42  545258  61856.7  60206.3
    5977.18  545901  61860.7  60206.6
    5977.94  548417  62266.7  60601.3
    5978.7  550482  62604.7  60927.9
    5979.45  551666  62827.7  61142.3
    5980.21  551883  62926.7  61234.5
    5980.97  552531  63093.7  61394.4
    5981.73  552497  63165.7  61459.5
    5982.48  552418  63221.7  61508
    5983.24  552276  63235.7  61516.7
    5984  549549  62775.7  61061.4
    5984.76  538599  60556.7  58890.8
    5985.52  509811  57289.7  55688.9
    5986.27  503401  59664.7  57984.2
    5987.03  528162  61968.7  60230.3
    5987.79  542461  62942.7  61167
    5988.54  547360  63308.7  61499.6
    5989.3  549344  63323.7  61455.7
    5990.06  550313  63169.7  61212.7
    5990.82  551184  63232.7  61211.8
    5991.58  551608  63319.7  61288.2
    5992.33  552191  63165.7  61072.8
    5993.09  551876  62684.7  60493.9
    5993.85  550987  62144.7  59870.6
    5994.6  548399  61917.7  59617.6
    5995.36  545186  62039.7  59727.6
    5996.12  542804  61989.7  59647.1
    5996.88  543358  61663.7  59258.8
    5997.64  545569  61138.7  58587
    5998.39  548778  60393.7  57575.3
    5999.15  551668  59069.7  55867.1
    5999.91  552654  57096.7  53427.2
    6000.67  553108  55229.7  51121.3
    6001.42  553002  53991.7  49563.8
    6002.18  553162  53246.7  48623
    6002.94  553463  52373.7  47587.7
    6003.7  553204  51060.7  46060
    6004.45  553838  49822.7  44568.4
    6005.21  554042  48500.7  43021.2
    6005.97  553865  46889.7  41175.4
    6006.73  554031  45651.7  39700
    6007.49  554188  45222.7  39114.8
    6008.24  554340  45311.7  39155.6
    6009  554379  45385.7  39235.7
    6009.01  554442  45393.7  39243.8
    6009.04  554366  45380.7  39232.9
    6009.09  554491  45381.6  39231.8
    6009.15  554711  45386.6  39233.7
    6009.24  554626  45350.5  39199.2
    6009.35  554684  45344.4  39189.6
    6009.47  555004  45323.3  39161
    6009.62  555421  45281.2  39111.4
    6009.78  555406  45187  39008.1
    6009.97  555626  45113.9  38921.7
    6010.17  556322  45054.7  38836
    6010.39  556352  44911.5  38668.6
    6010.63  557228  44874.3  38596.9
    6010.89  557352  44766.1  38458.6
    6011.17  557382  44722.9  38387.4
    6011.47  557755  44756.6  38392.9
    6011.79  558450  44909.3  38520.9
    6012.13  559446  45235.1  38826
    6012.48  559002  45506.7  39110.2
    6012.86  560027  46031.4  39654.1
    6013.26  560486  46555  40220.4
    6013.67  561132  47050.7  40764.3
    6014.1  561712  47541.3  41309.1
    6014.56  562420  48000  41818
    6015.03  563637  48424.6  42270.8
    6015.53  563852  48688.1  42565.4
    6016.04  564885  49027.7  42915.8
    6016.57  565394  49358.3  43262.5
    6017.12  565722  49686.8  43618.2
    6017.69  566989  50121.3  44070.3
    6018.28  568162  50527.8  44493.5
    6018.88  568478  50784.3  44778.8
    6019.51  569536  51041.7  45040.1
    6020.16  570265  51143.2  45132.8
    6020.83  571590  51185.6  45142.6
    6021.51  572209  51085  44996.2
    6022.21  573757  51050.4  44896.1
    6022.94  574596  50981.8  44770.7
    6023.69  575407  51006.2  44752.5
    6024.44  576753  51163.5  44868.1
    6025.23  577947  51399.9  45074.1
    6026.03  579148  51795.2  45459.8
    6026.85  580309  52334.5  46013.1
    6027.69  581729  53020.7  46737
    6028.55  583065  53716  47481
    6029.43  583943  54358.3  48179.9
    6030.32  585051  55006.5  48877.3
    6031.24  586607  55650.8  49556.8
    6032.18  587906  56200.9  50140.2
    6033.14  588976  56683.1  50649.2
    6034.11  590304  57182.3  51164.6
    6035.1  592232  57767.4  51756.9
    6036.12  593631  58238.6  52243
    6037.15  595065  58648.7  52657.2
    6038.2  596684  59008.8  53004
    6039.27  597630  59255.9  53231
    6040.36  599158  59502  53445.7
    6041.47  601266  59747  53638
    6042.6  602830  59875.1  53708.5
    6043.75  604598  60056.1  53826.9
    6044.92  606254  60291.1  54006.4
    6046.11  608183  60614.1  54286
    6047.31  609738  60859.1  54490.3
    6048.54  611211  61013  54593.7
    6049.79  612939  61091.9  54600.5
    6051.05  614508  61050.9  54465.4
    6052.33  616900  61051.7  54356.5
    6053.64  618062  60963.7  54174.2
    6054.96  620579  61107.5  54216
    6056.3  622235  61179.4  54203
    6057.66  623706  61171.2  54111.3
    6059.04  624654  61111  53962.2
    6060.44  626372  61161.9  53911.5
    6061.86  627884  61198.7  53859.3
    6063.3  629696  61307.4  53886
    6064.76  632211  61578.2  54074.4
    6066.23  634080  61850.9  54282.9
    6067.73  636012  62128.6  54497.8
    6069.24  638466  62490.4  54785.8
    6070.78  640155  62828.1  55069.9
    6072.34  642585  63314.7  55508.2
    6073.91  644802  63844.4  55994.5
    6075.5  647232  64435  56545.4
    6077.11  649705  64976.6  57042.6
    6078.74  651742  65491.3  57510.6
    6080.4  654152  66092.8  58071.2
    6082.07  656657  66782.4  58727.8
    6083.76  659068  67486  59406.4
    6085.47  661279  68169.5  60068.6
    6087.19  664072  68895.1  60753.3
    6088.94  666321  69557.5  61390.2
    6090.7  668936  70286.1  62083.9
    6092.49  671724  71044.5  62805.4
    6094.3  674335  71696  63411.4
    6096.12  676534  72166.4  63823.9
    6097.97  679621  72663.9  64228.5
    6099.83  681987  73061.3  64539.4
    6101.71  684915  73581.7  64968.9
    6103.61  687716  74152.1  65459.2
    6105.53  690042  74710.4  65957.4
    6107.47  693034  75406.8  66583.1
    6109.43  696235  76152.1  67255.4
    6111.41  698692  76791.4  67835.9
    6113.41  701949  77475.7  68444.4
    6115.43  704535  78036  68919.2
    6117.46  707608  78607.2  69396.9
    6119.52  710515  79183.5  69881.3
    6121.6  712999  79775.7  70392.2
    6123.69  716154  80497.9  71025.7
    6125.81  719995  81292.2  71726.1
    6127.94  722324  81880.4  72239.5
    6130.09  725047  82532.5  72795.5
    6132.26  728907  83256.6  73409.8
    6134.45  731883  83826.7  73863.8
    6136.66  734499  84315.9  74234.3
    6138.89  738304  84985  74767.7
    6141.14  741934  85608.1  75259
    6143.41  744671  86171.1  75702.6
    6145.7  748566  86925.2  76331.6
    6148.01  751820  87662.2  76955
    6150.33  754891  88462.2  77651.5
    6152.68  758414  89376.2  78468.4
    6155.05  761355  90164.2  79159.9
    6157.43  765357  90938.2  79796.4
    6159.83  768452  91501.2  80209.3
    6162.26  771595  92118.1  80672.5
    6164.7  775914  92957  81358.8
    6167.16  779305  93759.9  82031.8
    6169.64  783090  94777.8  82948.8
    6172.14  786780  95932.7  84019
    6174.66  790040  97084.6  85098.1
    6177.2  793711  98173.4  86090.9
    6179.76  798525  99272.1  87043.8
    6182.33  801485  100048  87690.5
    6184.93  805245  100991  88489.1
    6187.55  808879  102007  89371.7
    6190.18  812883  103049  90285.7
    6192.84  816574  104112  91225.6
    6195.51  820785  105379  92369.6
    6198.2  824689  106721  93613.3
    6200.92  828904  108167  94962
    6203.65  832953  109553  96248.7
    6206.4  835785  110627  97217.1
    6209.17  840306  111824  98254.4
    6211.96  844367  112899  99166.9
    6214.77  848644  113987  100074
    6217.6  852888  115020  100915
    6220.45  857144  115911  101588
    6223.31  861323  116777  102228
    6226.2  865251  117659  102904
    6229.1  869484  118661  103700
    6232.03  873997  119812  104652
    6234.97  876256  120378  105130
    6237.94  872563  121544  106157
    6240.92  886129  123745  108075
    6243.92  871108  122385  106875
    6246.94  893294  126286  110278
    6249.98  898377  127749  111555
    6253.04  903687  129301  112902
    6256.12  908393  130691  114095
    6259.22  912673  131953  115143
    6262.34  917760  133319  116257
    6265.48  921704  134595  117326
    6268.63  926827  136192  118704
    6271.81  931159  137718  120041
    6275.01  935958  139387  121510
    6278.22  940643  141060  122985
    6281.45  945571  142726  124438
    6284.71  949766  144214  125715
    6287.98  955171  145893  127137
    6291.27  959687  147371  128366
    6294.58  964237  148908  129660
    6297.91  969110  150498  130994
    6301.26  974435  152128  132346
    6304.63  978879  153592  133533
    6308.02  984311  155275  134928
    6311.43  988545  156942  136347
    6314.85  993645  158839  138005
    6318.3  998734  160792  139707
    6321.77  1.00359e+06  162692  141363
    6325.25  1.00924e+06  164845  143257
    6328.76  1.01384e+06  166876  145049
    6332.28  1.01893e+06  168937  146863
    6335.82  1.02454e+06  171060  148698
    6339.38  1.02943e+06  173010  150376
    6342.97  1.03541e+06  175109  152147
    6346.56  1.03958e+06  176823  153555
    6350.19  1.04519e+06  178820  155211
    6353.82  1.04976e+06  180633  156694
    6357.48  1.05595e+06  182815  158509
    6361.16  1.06091e+06  184808  160165
    6364.86  1.06628e+06  186901  161917
    6368.57  1.07122e+06  188972  163647
    6372.31  1.07714e+06  191300  165611
    6376.07  1.08289e+06  193724  167679
    6379.84  1.08828e+06  196100  169718
    6383.63  1.09437e+06  198565  171815
    6387.45  1.09901e+06  200691  173572
    6391.28  1.10409e+06  202847  175341
    6395.13  1.11026e+06  205259  177322
    6399  1.11627e+06  207743  179387
    6402.89  1.12149e+06  210153  181429
    6406.8  1.12704e+06  212701  183588
    6410.73  1.13282e+06  215296  185773
    6414.68  1.13862e+06  217873  187928
    6418.65  1.1444e+06  220451  190086
    6422.63  1.14952e+06  223018  192249
    6426.64  1.1561e+06  225971  194739
    6430.67  1.16094e+06  228508  196877
    6434.71  1.16707e+06  231311  199231
    6438.77  1.17261e+06  233900  201380
    6442.86  1.17794e+06  236637  203664
    6446.96  1.18375e+06  239519  206090
    6451.08  1.18894e+06  242421  208591
    6455.22  1.19645e+06  245952  211644
    6459.38  1.20201e+06  249008  214265
    6463.56  1.20796e+06  252160  216931
    6467.76  1.21415e+06  255318  219608
    6471.98  1.22004e+06  258413  222208
    6476.22  1.22642e+06  261563  224820
    6480.48  1.2317e+06  264490  227243
    6484.75  1.23847e+06  267830  230024
    6489.05  1.24433e+06  270972  232624
    6493.36  1.25004e+06  274037  235137
    6497.7  1.25571e+06  277128  237653
    6502.05  1.26216e+06  280516  240450
    6506.42  1.26827e+06  283948  243288
    6510.82  1.27444e+06  287381  246144
    6515.23  1.28064e+06  290723  248871
    6519.66  1.28718e+06  294144  251631
    6524.11  1.29312e+06  297580  254460
    6528.58  1.29999e+06  301406  257623
    6533.07  1.30608e+06  305123  260700
    6537.58  1.31266e+06  309022  263958
    6542.1  1.31901e+06  313024  267318
    6546.65  1.32436e+06  316755  270437
    6551.21  1.33035e+06  320763  273811
    6555.8  1.33727e+06  324966  277344
    6560.41  1.34377e+06  329225  280909
    6565.03  1.35088e+06  333687  284668
    6569.67  1.35693e+06  337894  288191
    6574.33  1.36336e+06  342149  291732
    6579.02  1.36913e+06  346183  295035
    6583.72  1.37665e+06  350680  298705
    6588.44  1.38266e+06  354820  302056
    6593.18  1.38842e+06  358869  305314
    6597.94  1.3955e+06  363376  308974
    6602.72  1.4024e+06  367845  312602
    6607.52  1.40811e+06  372125  316072
    6612.33  1.41467e+06  376834  319987
    6617.17  1.42151e+06  381675  324008
    6622.02  1.42774e+06  386453  327965
    6626.9  1.43584e+06  391661  332265
    6631.79  1.44112e+06  396210  336010
    6636.71  1.44706e+06  400998  339955
    6641.64  1.45396e+06  406165  344214
    6646.59  1.46211e+06  411870  348934
    6651.56  1.46806e+06  416787  352972
    6656.55  1.47438e+06  422020  357276
    6661.56  1.48133e+06  427460  361759
    6666.59  1.48726e+06  432551  365928
    6671.64  1.49365e+06  437869  370261
    6676.71  1.50194e+06  443760  375075
    6681.8  1.50885e+06  449345  379647
    6686.9  1.51347e+06  454170  383520
    6692.03  1.51942e+06  459437  387729
    6697.18  1.52529e+06  464754  392022
    6702.34  1.52992e+06  469680  395984
    6707.52  1.53135e+06  472575  398256
    6712.73  1.50424e+06  464802  391459
    6717.95  1.50754e+06  486233  409455
    6723.19  1.55287e+06  489662  411806
    6728.45  1.57637e+06  503951  423763
    6733.73  1.57853e+06  508741  427682
    6739.03  1.57115e+06  506874  425929
    6744.35  1.58881e+06  520852  437464
    6749.69  1.59215e+06  525675  441405
    6755.04  1.60897e+06  537192  450834
    6760.42  1.61322e+06  542166  454860
    6765.82  1.58611e+06  537972  451230
    6771.24  1.62685e+06  556431  466472
    6776.67  1.62998e+06  562157  471077
    6782.12  1.61826e+06  559147  468287
    6787.6  1.57431e+06  561481  470234
    6793.09  1.63615e+06  571658  478066
    6798.6  1.67466e+06  598228  500310
    6804.13  1.67714e+06  603608  504619
    6809.68  1.68172e+06  610244  509981
    6815.25  1.6874e+06  617576  515895
    6820.84  1.69292e+06  624789  521670
    6826.45  1.7001e+06  632779  528094
    6832.08  1.70634e+06  640460  534268
    6837.73  1.7117e+06  648000  540336
    6843.39  1.71902e+06  656314  546996
    6849.08  1.72439e+06  663940  553106
    6854.78  1.73111e+06  672232  559759
    6860.51  1.73835e+06  680891  566715
    6866.25  1.7447e+06  689240  573368