File: data/Cr/cr2o3_100K_004.xdi
# XDI/1.0
# Column.1: energy eV
# Column.2: i0
# Column.3: itrans
# Column.4: irefer
# Beamline.name: SSRL 2-3
# Beamline.notes: vert slits = 0.6mm
# Detector.I0: N2 15cm
# Detector.I1: N2 30cm
# Detector.I2: N2 15cm
# Element.edge: K
# Element.symbol: Cr
# Mono.d_spacing: 3.13550
# Mono.name: Si(111)
# Mono.notes: unfocused, detuned 75%, clockwise at E=5990eV
# Sample.formula: Cr2O3
# Sample.name: Cr2O3
# Sample.prep: powder on tape (4 layers)
# Sample.reference: Cr foil
# Sample.temperature: 100K
# Scan.start_time: 1997-04-18 21:40:35
# ///
#    Note: mono d_spacing is nominal!
#     exafs to K16
#     396  E XMU XMUR I0
#-------------
#   energy   i0   itrans  irefer
    5759.99  212405  11051.7  1410.3
    5769.98  212101  11251.7  1442.3
    5780.01  211915  11462.7  1480.3
    5790  211767  11679.7  1518.3
    5799.97  211571  11897.7  1553.3
    5810.03  211343  12109.7  1595.3
    5820  211225  12339.7  1634.3
    5830  211167  12578.7  1676.3
    5839.97  211171  12806.7  1717.3
    5849.98  210994  13043.7  1760.3
    5860.02  210831  13276.7  1805.3
    5870.02  210540  13506.7  1845.3
    5879.99  210387  13745.7  1887.3
    5890  210071  13980.7  1933.3
    5899.97  209831  14216.7  1976.3
    5909.98  209624  14461.7  2025.3
    5920.02  209367  14701.7  2069.3
    5930.03  209112  14945.7  2114.3
    5939.99  208694  15171.7  2158.3
    5950  208385  15406.7  2204.3
    5959.97  208076  15628.7  2248.3
    5969.97  207641  15837.7  2289.3
    5970.49  207409  15838.7  2290.3
    5971.01  207108  15827.7  2288.3
    5971.53  205865  15736.7  2275.3
    5971.97  204676  15655.7  2263.3
    5972.49  204161  15627.7  2259.3
    5973.01  205797  15762.7  2279.3
    5973.53  207531  15907.7  2302.3
    5973.98  208107  15960.7  2310.3
    5974.5  208014  15961.7  2311.3
    5975.02  207947  15968.7  2312.3
    5975.46  208175  15988.7  2317.3
    5975.98  208124  16004.7  2320.3
    5976.51  208063  16006.7  2319.3
    5977.03  207976  16010.7  2319.3
    5977.47  208047  16024.7  2324.3
    5977.99  208233  16046.7  2325.3
    5978.52  208248  16058.7  2328.3
    5979.04  208120  16056.7  2328.3
    5979.48  208123  16070.7  2330.3
    5980.01  208354  16099.7  2333.3
    5980.53  208248  16101.7  2335.3
    5980.97  208221  16098.7  2333.3
    5981.49  208243  16112.7  2336.3
    5982.02  208367  16132.7  2340.3
    5982.46  208650  16152.7  2342.3
    5982.99  208678  16170.7  2343.3
    5983.51  208565  16164.7  2342.3
    5984.03  208504  16164.7  2342.3
    5984.48  208500  16166.7  2341.3
    5985  208147  16144.7  2337.3
    5985.52  206061  15983.7  2313.3
    5985.97  202201  15688.7  2269.3
    5986.49  192355  14932.7  2158.3
    5987.02  180525  14001.7  2022.3
    5987.46  182327  14142.7  2038.3
    5987.99  192559  14928.7  2149.3
    5988.51  198656  15389.7  2206.3
    5989.03  202253  15644.7  2229.3
    5989.48  203951  15751.7  2219.3
    5990  205149  15769.7  2173.3
    5990.53  205520  15647.7  2088.3
    5990.98  205853  15459.7  2016.3
    5991.5  205956  15197.7  1940.3
    5992.02  206222  15159.7  1900.3
    5992.47  206077  15227.7  1883.3
    5992.99  206362  15243.7  1859.3
    5993.52  206622  15032.7  1809.3
    5993.97  206535  14758.7  1760.3
    5994.49  206445  14424.7  1703.3
    5995.02  206462  14190.7  1665.3
    5995.47  206587  14140.7  1653.3
    5995.99  206677  14187.7  1658.3
    5996.51  206546  14225.7  1663.3
    5996.96  206424  14203.7  1659.3
    5997.49  206519  14154.7  1648.3
    5998.01  206396  14032.7  1622.3
    5998.54  206329  13793.7  1572.3
    5998.99  206239  13429.7  1506.3
    5999.51  206055  12766.7  1403.3
    6000.04  206118  11859.7  1277.3
    6000.49  205581  10868.7  1149.3
    6001.01  204207  9523.7   988.3
    6001.46  202778  8450.7   865.3
    6001.99  202871  7418.7   748.3
    6002.51  204525  6679.7   664.3
    6002.96  205578  6332.7   623.3
    6003.49  205866  6110.7   596.3
    6004.02  206123  5876.7   566.3
    6004.47  206188  5568.7   533.3
    6004.99  206228  5073.7   482.3
    6005.52  206023  4530.7   427.3
    6005.97  206036  4136.7   387.3
    6006.5  206141  3746.7   348.3
    6007.02  206052  3307.7   304.3
    6007.47  205960  2899.7   266.3
    6008  205981  2479.7   226.3
    6008.53  205918  2225.7   202.3
    6008.98  205579  2159.7   194.3
    6009.5  205213  2182.7   195.3
    6010.03  205180  2250.7   199.3
    6010.94  205259  2263.46   199.064
    6011.84  205416  2078.73   186.358
    6012.82  205294  1914.51   175.181
    6013.8  205332  1993.81   187.534
    6014.78  205272  2333.62   221.415
    6015.76  205589  2678.94   253.826
    6016.81  205647  2901.78   273.765
    6017.8  205703  3035.13   284.234
    6018.93  205795  3249   300.233
    6019.99  205957  3441.38   312.76
    6021.12  206276  3562.27   321.817
    6022.18  206415  3531.68   319.402
    6023.39  206605  3355.6   307.518
    6024.52  206687  3206.03   295.162
    6025.73  207005  3145.98   289.335
    6026.87  207417  3157.44   288.038
    6028.16  207731  3321.41   302.27
    6029.37  207840  3598.9   324.031
    6030.58  208120  3909.91   350.321
    6031.87  208370  4218.42   375.141
    6033.16  208937  4484.45   397.49
    6034.53  209032  4699.99   416.367
    6035.82  209444  4880.05   430.774
    6037.19  209791  5068.62   446.711
    6038.56  210466  5224.7   458.176
    6040  210846  5302.3   461.171
    6041.37  211108  5336.41   463.695
    6042.82  211568  5328.03   463.748
    6044.26  211967  5269.17   461.331
    6045.71  212655  5228.82   460.442
    6047.24  213114  5239.99   462.083
    6048.76  213694  5263.66   466.252
    6050.29  214377  5235.85   466.952
    6051.82  214948  5128.56   463.181
    6053.42  215675  4946.78   451.938
    6054.95  216122  4774.51   440.225
    6056.56  216718  4661.76   435.041
    6058.24  217380  4568.52   431.386
    6059.85  217693  4434.79   420.26
    6061.53  217990  4294.58   408.664
    6063.22  218448  4178.88   398.597
    6064.91  219199  4085.7   388.059
    6066.68  220022  4047.02   380.05
    6068.36  220599  4041.86   378.57
    6070.13  221437  4035.22   372.621
    6071.9  222325  4042.09   367.199
    6073.75  223081  4095.47   370.307
    6075.52  224013  4186.37   380.944
    6077.37  224747  4283.78   395.111
    6079.22  225524  4363.7   407.807
    6081.15  226417  4440.14   420.031
    6083  227200  4547.09   436.786
    6084.93  228021  4695.55   458.069
    6086.87  228865  4841.53   473.881
    6088.8  229795  4976.02   485.223
    6090.81  230588  5107.03   490.094
    6092.83  231694  5262.54   494.494
    6094.84  232542  5402.58   496.423
    6096.86  233766  5498.12   492.882
    6098.88  234619  5510.18   485.87
    6100.98  235657  5495.75   480.387
    6103.07  236788  5504.84   485.433
    6105.18  238130  5557.44   498.008
    6107.28  239315  5642.55   516.112
    6109.46  240654  5751.18   535.746
    6111.64  241733  5859.32   557.909
    6113.83  242895  5947.98   577.601
    6116.01  244011  6002.15   587.822
    6118.28  244969  6019.83   591.573
    6120.47  246193  6043.02   591.853
    6122.74  247236  6104.73   594.662
    6125.01  248522  6189.96   602.001
    6127.36  249744  6272.69   611.868
    6129.64  250906  6334.94   624.264
    6131.99  251762  6388.7   634.19
    6134.35  253083  6417.98   640.645
    6136.79  254418  6403.77   639.629
    6139.15  255416  6384.07   637.143
    6141.59  256878  6377.89   636.185
    6144.04  258405  6383.22   636.757
    6146.48  259479  6406.07   634.858
    6148.93  260827  6462.43   637.488
    6151.46  262289  6565.3   644.648
    6153.99  263522  6698.68   656.335
    6156.53  265239  6803.59   665.554
    6159.06  266764  6815   661.302
    6161.6  268045  6771.92   652.578
    6164.22  269246  6751.36   643.383
    6166.84  270868  6792.32   643.718
    6169.47  272232  6873.78   653.582
    6172.1  273627  7029.77   676.975
    6174.81  275031  7259.26   709.897
    6177.52  276517  7456.26   739.349
    6180.23  278131  7572.79   759.329
    6182.95  279576  7620.82   769.839
    6185.67  281280  7682.38   778.879
    6188.47  282693  7770.43   788.447
    6191.27  284593  7883.01   804.543
    6194.08  286039  8004.1   818.17
    6196.89  287907  8202.71   842.327
    6199.7  289627  8463.82   872.012
    6202.6  290855  8737.45   902.226
    6205.5  292402  8979.6   929.97
    6208.4  294428  9147.26   953.243
    6211.3  296060  9235.43   969.044
    6214.21  298108  9321.11   982.375
    6217.2  299607  9365.3   990.236
    6220.2  301432  9372.02   987.625
    6223.19  303189  9328.25   978.544
    6226.19  305372  9305.98   971.992
    6229.2  307232  9307.24   966.971
    6232.28  308952  9362.01   963.478
    6235.38  307862  9401.29   959.512
    6238.47  312849  9671.08   984.076
    6241.56  306599  9575.39   969.171
    6244.75  314395  9896.21  1001.79
    6247.85  317081  10078.5  1025.95
    6251.04  319314  10269.4  1056.63
    6254.23  321383  10452.7  1090.84
    6257.43  323477  10585.6  1117.58
    6260.71  324882  10651  1135.85
    6263.91  326745  10691.9  1147.65
    6267.2  328533  10785.3  1157.97
    6270.49  330477  10949.3  1177.83
    6273.79  332532  11142.7  1202.22
    6277.17  334800  11375.7  1230.13
    6280.48  336313  11575.1  1260.58
    6283.86  338352  11766.1  1282.55
    6287.26  340070  11922.6  1299.05
    6290.65  341865  12037.6  1313.09
    6294.06  344302  12171.2  1329.65
    6297.54  346292  12309.2  1351.74
    6300.95  348329  12432.7  1373.36
    6304.45  350265  12501.8  1383.51
    6307.95  352098  12556.4  1395.18
    6311.54  354068  12684.5  1410.39
    6315.05  356214  12887.1  1431.13
    6318.56  358477  13135.2  1456.39
    6322.16  360502  13352.8  1477.19
    6325.77  362533  13593  1501.51
    6329.38  364136  13873.7  1531.37
    6333.07  366245  14171.8  1566.75
    6336.69  368283  14414.5  1595.66
    6340.4  370492  14640.7  1624.1
    6344.11  372159  14802.4  1650.07
    6347.83  374398  14937.7  1673.57
    6351.55  376469  15049.4  1694.6
    6355.27  378795  15186.7  1714.16
    6359.09  380764  15323.4  1737.24
    6362.82  382906  15483.7  1765.86
    6366.65  385830  15681.5  1799.01
    6370.47  387283  15806.8  1822.68
    6374.31  389258  15997.6  1850.88
    6378.23  391684  16257  1885.62
    6382.07  393818  16558.8  1922.88
    6386.01  396440  16834.2  1959.67
    6389.95  397713  16958.1  1978.99
    6393.89  400269  17104.5  2001.84
    6397.84  402006  17232.4  2021.22
    6401.88  403764  17407.8  2044.13
    6405.84  406011  17647.7  2074.57
    6409.89  408152  17907.2  2105.53
    6413.95  410382  18140.1  2140.03
    6418.01  412726  18355.6  2173.05
    6422.08  414486  18557.6  2206.61
    6426.15  417176  18843.1  2242.69
    6430.32  419232  19108.1  2276.3
    6434.4  421493  19363.6  2306.45
    6438.58  423480  19571.7  2334.12
    6442.76  425756  19775.2  2361.32
    6446.95  428595  20031.3  2399.05
    6451.23  431246  20361.9  2444.31
    6455.43  432919  20739  2501.09
    6459.72  435718  21176.6  2562.41
    6463.93  437651  21508.7  2612.26
    6468.24  440188  21858.3  2661.63
    6472.55  442013  22134.5  2699.54
    6476.95  444992  22448.2  2743.97
    6481.28  446908  22681.3  2780.94
    6485.61  449306  22967  2826.43
    6490.03  451444  23218.2  2868.45
    6494.46  454034  23464  2903
    6498.9  456139  23669.2  2935.08
    6503.34  458777  23926.9  2974.69
    6507.79  460842  24237.2  3020.83
    6512.34  462660  24544  3069.49
    6516.8  464828  24764.3  3108.69
    6521.35  467235  24949.1  3139.42
    6525.92  469450  25208.4  3183.67
    6530.49  472093  25538.2  3235.46
    6535.07  474376  25868.5  3282.77
    6539.65  476567  26217.4  3335.61
    6544.25  478970  26617.8  3393.98
    6548.94  480944  27012.6  3448.89
    6553.54  482726  27360  3499.32
    6558.24  484302  27705.9  3550.28
    6562.95  486598  28156.4  3614.77
    6567.67  488658  28626.3  3685.78
    6572.4  490969  29060.8  3752.33
    6577.22  493241  29436.7  3816.41
    6581.96  495348  29735.2  3863.01
    6586.79  497558  30028.2  3916.15
    6591.55  499507  30308.7  3966.82
    6596.4  502443  30615.7  4018.01
    6601.26  504867  30872.2  4060.73
    6606.12  505899  31060.3  4095.98
    6611.09  508631  31436.9  4156.76
    6615.97  511257  31906.9  4231.07
    6620.95  513654  32385.5  4305.91
    6625.85  515700  32793.6  4369.28
    6630.85  518251  33202.2  4438.18
    6635.85  520404  33625.3  4505.6
    6640.87  522503  34047  4575.56
    6645.89  523841  34431.1  4641.05
    6650.92  525782  34874.8  4710.06
    6655.96  527764  35307  4783.6
    6661.1  529780  35778.7  4858.67
    6666.15  532503  36266.9  4939.28
    6671.31  533969  36620.6  5002.41
    6676.47  536068  37018.8  5070.07
    6681.64  538504  37462.6  5141.26
    6686.82  540036  37853.9  5204.98
    6692.01  541112  38156.6  5259.23
    6697.3  539898  38322.9  5295.01
    6702.51  515478  36774.7  5094.31
    6707.72  560284  40315  5600.14
    6713.04  556239  40303.9  5610.51
    6718.37  556468  40584.2  5667.4
    6723.7  557636  40970.1  5731.83
    6729.05  558895  41387.4  5810.78
    6734.4  559198  41755.3  5878.26
    6739.77  565806  42570.7  6005.27
    6745.14  564105  42774.6  6049.82
    6750.61  551373  42155.1  5975.88
    6756  565055  43544  6190.48
    6761.5  559977  43457.4  6197.61
    6766.91  572187  44814.4  6412.27
    6772.42  562952  44520.9  6385.45
    6777.94  578443  46088.9  6628.17
    6783.48  580365  46584.4  6719.41
    6789.02  580520  46933.4  6789.19
    6794.57  580720  47273.9  6858.49
    6800.23  579017  47480  6902.32
    6805.8  549065  45735.6  6668.69
    6811.48  598290  49890.6  7291.57
    6817.07  595243  50084.2  7338
    6822.77  596584  50645.3  7436.94
    6828.47  597372  51138.9  7524.42
    6834.19  598576  51638.1  7624.43
    6839.92  600708  52244.7  7733.97
    6845.66  601586  52780.9  7829.04
    6851.4  603809  53412.6  7940.63
    6857.16  605812  53988.7  8047.76
    6863.03  607649  54630.4  8165.4
    6868.81  609313  55191.6  8268.59
    6874.7  610664  55703.4  8369.3
    6880.5  612425  56247.6  8472.54
    6886.41  614008  56789.4  8575.31
    6892.33  616161  57407.6  8698.61
    6898.26  617757  57982.4  8810.44
    6904.2  619011  58554.7  8921.8
    6910.15  620328  59174.5  9034.69
    6916.11  622001  59816.8  9155.11
    6922.09  622414  60347.7  9261.05
    6928.18  624669  61061  9396.52
    6934.17  626884  61737.9  9521.53
    6940.28  628452  62396.3  9651.07
    6946.3  628765  62938.1  9757.12
    6952.43  630085  63611.6  9892.72
    6958.57  632008  64370.5  10036.8
    6964.62  633235  65016.9  10162.5
    6970.78  634379  65685.8  10287.7
    6976.96  634113  66185.3  10394.4
    6983.15  636708  66983.2  10547.6
    6989.35  637622  67570.7  10672.4
    6995.66  638729  68217.7  10801.7
    7001.88  640455  68930.2  10944.5
    7008.12  641881  69592.3  11072.9
    7014.47  643699  70267.8  11216.7
    7020.72  644968  70893.9  11350.1
    7027.1  646155  71552.4  11487.1
    7033.38  648116  72310.5  11630.6
    7039.77  648936  72961.1  11764.6
    7046.18  651420  73807.2  11939.1
    7052.6  652679  74506.8  12081.1
    7059.04  653802  75252  12235.8
    7065.48  655010  75993.6  12389.9
    7071.94  655876  76728.8  12543.5
    7078.41  657719  77569.4  12715.7
    7084.9  658788  78324.6  12875.4
    7091.39  660234  79149.3  13032.6
    7097.9  660574  79759.6  13174.4
    7104.53  661392  80411.2  13320.7
    7111.06  661918  81064.5  13457.5