File: data/Cr/cr2o3_rt_002.xdi
# XDI/1.0
# Column.1: energy eV
# Column.2: i0
# Column.3: itrans
# Column.4: irefer
# Beamline.name: SSRL 2-3
# Beamline.notes: vert slits = 0.6mm
# Detector.I0: N2 15cm
# Detector.I1: N2 30cm
# Detector.I2: N2 15cm
# Element.edge: K
# Element.symbol: Cr
# Mono.d_spacing: 3.13550
# Mono.name: Si(111)
# Mono.notes: unfocused, detuned 75%, clockwise at E=5990eV
# Sample.formula: Cr2O3
# Sample.name: Cr2O3
# Sample.prep: powder on tape (5 layers)
# Sample.reference: Cr foil
# Sample.temperature: room temp
# Scan.start_time: 1997-04-17 17:30:13
# ///
#    Note: mono d_spacing is nominal!
#     exafs to K16
#     396  E XMU XMUR I0
#-------------
#   energy   i0   itrans  irefer
    5759.99  27115.9  9422.5  1200.7
    5769.98  27088.9  9611.5  1233.7
    5780.01  27042.9  9812.5  1265.7
    5790  26994.9  10006.5  1300.7
    5799.97  26958.9  10212.5  1335.7
    5810.03  26892.9  10407.5  1368.7
    5820  26866.9  10619.5  1404.7
    5830  26796.9  10819.5  1439.7
    5839.97  26744.9  11022.5  1475.7
    5849.98  26707.9  11239.5  1512.7
    5860.02  26659.9  11457.5  1549.7
    5870.02  26592.9  11661.5  1588.7
    5879.99  26539.9  11875.5  1628.7
    5890  26507.9  12099.5  1668.7
    5899.97  26444.9  12315.5  1706.7
    5909.98  26371.9  12532.5  1747.7
    5920.02  26305.9  12750.5  1789.7
    5930.03  26233.9  12967.5  1829.7
    5939.99  26203.9  13197.5  1873.7
    5950  26116.9  13404.5  1913.7
    5959.97  26053.9  13613.5  1952.7
    5969.97  25982.9  13824.5  1992.7
    5970.49  25970.9  13832.5  1994.7
    5971.01  25945.9  13828.5  1994.7
    5971.53  25924.9  13830.5  1992.7
    5971.97  25874.9  13810.5  1990.7
    5972.49  25711.9  13742.5  1981.7
    5973.01  25571.9  13677.5  1970.7
    5973.53  25593.9  13704.5  1976.7
    5973.98  25744.9  13791.5  1989.7
    5974.5  25919.9  13901.5  2005.7
    5975.02  25982.9  13940.5  2012.7
    5975.46  25981.9  13955.5  2013.7
    5975.98  25967.9  13956.5  2015.7
    5976.51  25983.9  13978.5  2021.7
    5977.03  25972.9  13979.5  2021.7
    5977.47  25985.9  13999.5  2023.7
    5977.99  25956.9  13995.5  2024.7
    5978.52  25970.9  14016.5  2027.7
    5979.04  25991.9  14038.5  2031.7
    5979.48  25994.9  14054.5  2035.7
    5980.01  25997.9  14067.5  2038.7
    5980.53  25975.9  14070.5  2036.7
    5980.97  25969.9  14073.5  2037.7
    5981.49  25961.9  14080.5  2039.7
    5982.02  25983.9  14108.5  2042.7
    5982.46  25989.9  14120.5  2043.7
    5982.99  26000.9  14135.5  2046.7
    5983.51  25994.9  14144.5  2047.7
    5984.03  25990.9  14161.5  2049.7
    5984.48  25988.9  14164.5  2049.7
    5985  26014.9  14186.5  2053.7
    5985.52  25981.9  14176.5  2052.7
    5985.97  25900.9  14139.5  2046.7
    5986.49  25588.9  13979.5  2023.7
    5987.02  24965.9  13650.5  1973.7
    5987.46  23801.9  13016.5  1879.7
    5987.99  22456.9  12285.5  1772.7
    5988.51  23251.9  12731.5  1833.7
    5989.03  24382.9  13357.5  1917.7
    5989.48  24883.9  13631.5  1951.7
    5990  25244.9  13826.5  1965.7
    5990.53  25449.9  13924.5  1948.7
    5990.98  25539.9  13951.5  1910.7
    5991.5  25574.9  13904.5  1844.7
    5992.02  25619.9  13818.5  1788.7
    5992.47  25645.9  13755.5  1749.7
    5992.99  25666.9  13773.5  1720.7
    5993.52  25683.9  13832.5  1701.7
    5993.97  25671.9  13805.5  1678.7
    5994.49  25669.9  13710.5  1644.7
    5995.02  25682.9  13586.5  1613.7
    5995.47  25689.9  13484.5  1590.7
    5995.99  25689.9  13409.5  1569.7
    5996.51  25673.9  13397.5  1564.7
    5996.96  25685.9  13430.5  1567.7
    5997.49  25680.9  13443.5  1568.7
    5998.01  25688.9  13443.5  1567.7
    5998.54  25695.9  13419.5  1558.7
    5998.99  25693.9  13361.5  1539.7
    5999.51  25671.9  13223.5  1499.7
    6000.04  25655.9  12992.5  1442.7
    6000.49  25653.9  12691.5  1386.7
    6001.01  25605.9  12192.5  1303.7
    6001.46  25497.9  11623.5  1219.7
    6001.99  25333.9  10906.5  1124.7
    6002.51  25248.9  10227.5  1035.7
    6002.96  25304.9  9752.5   976.7
    6003.49  25472.9  9378.5   925.7
    6004.02  25608.9  9177.5   895.7
    6004.47  25647.9  9055.5   874.7
    6004.99  25644.9  8837.5   844.7
    6005.52  25611.9  8485.5   802.7
    6005.97  25640.9  8140.5   763.7
    6006.5  25609.9  7719.5   717.7
    6007.02  25613.9  7343.5   676.7
    6007.47  25601.9  7018.5   640.7
    6008  25590.9  6590.5   596.7
    6008.53  25582.9  6107.5   547.7
    6008.98  25598.9  5773.5   514.7
    6009.5  25604.9  5555.5   489.7
    6010.03  25609.9  5507.5   481.7
    6010.94  25691.7  5631.26   483.465
    6011.84  25695  5593.52   476.758
    6012.82  25731.8  5309.3   457.581
    6013.8  25737.1  5140.58   455.932
    6014.78  25736  5334.38   484.812
    6015.76  25740.4  5806.69   536.222
    6016.81  25755.3  6232.5   577.16
    6017.8  25747.7  6442.83   594.627
    6018.93  25771.7  6638.67   607.624
    6019.99  25794.2  6865.02   620.148
    6021.12  25814.2  7067.88   633.203
    6022.18  25828.8  7154.25   639.786
    6023.39  25868.8  7093.13   635.897
    6024.52  25890.4  6940.52   627.539
    6025.73  25931.6  6840.43   620.708
    6026.87  25964.2  6819.84   616.408
    6028.16  25987.4  6888.76   617.635
    6029.37  26013.1  7115.19   632.392
    6030.58  26038.3  7414.13   652.677
    6031.87  26086.1  7739.59   677.493
    6033.16  26112.4  8019.55   700.837
    6034.53  26165.2  8265.02   720.708
    6035.82  26203.5  8449.01   738.111
    6037.19  26249.4  8638.51   753.042
    6038.56  26286.8  8810.51   764.501
    6040  26339.7  8940.03   772.49
    6041.37  26374.1  9010.06   776.008
    6042.82  26429.1  9050.59   780.054
    6044.26  26491.6  9045.64   781.63
    6045.71  26552.6  9009.19   782.734
    6047.24  26581.1  8997.27   787.368
    6048.76  26650.2  9040.85   793.531
    6050.29  26711.8  9061.93   800.221
    6051.82  26804.9  9036.53   805.441
    6053.42  26868.5  8925.65   804.191
    6054.95  26904.7  8782.26   800.469
    6056.56  27002.4  8683.4   801.277
    6058.24  27078.6  8614.03   801.613
    6059.85  27129.4  8536.19   800.478
    6061.53  27179.6  8430.85   794.872
    6063.22  27221.4  8336.02   787.795
    6064.91  27279.8  8258.7   780.248
    6066.68  27361.6  8228.9   774.229
    6068.36  27444  8242.61   766.739
    6070.13  27533.9  8263.81   760.777
    6071.9  27634.3  8297.54   752.345
    6073.75  27730.3  8361.78   754.442
    6075.52  27818.8  8463.52   766.067
    6077.37  27921.8  8587.78   784.222
    6079.22  28008.3  8695.54   806.906
    6081.15  28111.4  8803.82   830.119
    6083  28223  8937.61   854.86
    6084.93  28320.1  9106.9   882.13
    6086.87  28346.7  9253.71   902.931
    6088.8  28466.9  9418.04   919.26
    6090.81  28558.6  9574.87   923.117
    6092.83  28668.8  9753.2   918.503
    6094.84  28789.5  9919.05   913.419
    6096.86  28884.8  10048.4   905.864
    6098.88  29019.6  10128.3   896.837
    6100.98  29138.9  10168.7   890.339
    6103.07  29274.7  10218.6   894.371
    6105.18  29344.1  10270   908.931
    6107.28  29473  10372.9   935.02
    6109.46  29597.4  10494.3   968.638
    6111.64  29709.4  10622.2  1002.79
    6113.83  29853.8  10749.7  1034.46
    6116.01  29999.8  10861.6  1057.67
    6118.28  30134.4  10942.1  1069.4
    6120.47  30254.4  11009.1  1076.66
    6122.74  30408  11108.5  1082.46
    6125.01  30539.1  11223.5  1092.78
    6127.36  30668.7  11338.1  1104.63
    6129.64  30809.9  11449.1  1122.01
    6131.99  30958.6  11560.6  1140.91
    6134.35  31097.8  11646.6  1156.35
    6136.79  31238.5  11710.2  1166.32
    6139.15  31389.8  11761.2  1169.81
    6141.59  31552.6  11821.8  1175.83
    6144.04  31682.9  11870.9  1179.39
    6146.48  31838.7  11941.5  1184.47
    6148.93  32014.1  12039.6  1186.08
    6151.46  32162  12167.2  1191.22
    6153.99  32317.4  12327.3  1202.89
    6156.53  32491.3  12482.9  1214.08
    6159.06  32645.8  12567.1  1217.81
    6161.6  32816.8  12608.7  1210.07
    6164.22  32983.3  12665.9  1204.85
    6166.84  33124.3  12758.6  1204.17
    6169.47  33313.9  12893.8  1220.01
    6172.1  33487  13080.5  1250.38
    6174.81  33666.6  13335.7  1294.28
    6177.52  33838.8  13571.4  1335.71
    6180.23  34023.5  13760.6  1372.67
    6182.95  34195.7  13896.3  1399.15
    6185.67  34371.4  14022.6  1420.17
    6188.47  34572.6  14192.3  1445.71
    6191.27  34768.4  14371.6  1466.79
    6194.08  34953.7  14557.4  1490.39
    6196.89  35123.5  14778.7  1519.52
    6199.7  35304.9  15050.5  1553.19
    6202.6  35542.8  15373.8  1594.37
    6205.5  35714.2  15643.6  1626.09
    6208.4  35893.1  15854.9  1655.34
    6211.3  36068.6  16027.8  1685.12
    6214.21  36308.6  16197.1  1712.43
    6217.2  36484.1  16331  1733.26
    6220.2  36696.1  16445.4  1744.62
    6223.19  36879.7  16509.2  1743.52
    6226.19  37054.8  16572.6  1740.94
    6229.2  37282.4  16684.5  1746.89
    6232.28  37459.5  16807  1749.37
    6235.38  37614.2  16976.9  1751.38
    6238.47  37941.4  17270.3  1771.91
    6241.56  37402.1  17147.3  1752.98
    6244.75  38075.4  17580.7  1795.58
    6247.85  38276.1  17801.7  1820.7
    6251.04  38639.4  18115.2  1867.35
    6254.23  38831.2  18332.1  1910.54
    6257.43  39074.6  18553.6  1962.25
    6260.71  39297.5  18742.6  2002.49
    6263.91  39545.9  18918.2  2035.26
    6267.2  39722.8  19102.2  2059.56
    6270.49  39937.2  19338.7  2088.38
    6273.79  40141.2  19596.8  2123.74
    6277.17  40353.7  19879.3  2157.62
    6280.48  40578.8  20150.4  2195.04
    6283.86  40801.3  20424  2229.98
    6287.26  41042.4  20670.1  2260.45
    6290.65  41241  20883.7  2283.45
    6294.06  41475.1  21111.8  2315.98
    6297.54  41698.8  21335.4  2350.04
    6300.95  41914  21558.5  2386.63
    6304.45  42147.7  21766.2  2417.75
    6307.95  42314.9  21947.3  2445.39
    6311.54  42591.7  22204  2476.57
    6315.05  42846  22505.2  2511.27
    6318.56  43062.8  22807.9  2544.5
    6322.16  43290.1  23115.1  2571.27
    6325.77  43474  23419.8  2596.55
    6329.38  43739.4  23780  2634.38
    6333.07  43944.3  24119.7  2673.72
    6336.69  44179.8  24451.9  2714.6
    6340.4  44420.7  24771.7  2754.01
    6344.11  44633.2  25056  2791.94
    6347.83  44859.3  25311.7  2834.41
    6351.55  45084.8  25565  2878.4
    6355.27  45355.9  25843.8  2921.92
    6359.09  45536.5  26094.1  2961.97
    6362.82  45805.6  26391.9  3013.55
    6366.65  46017.3  26667.2  3065.66
    6370.47  46293.4  26966.1  3115.3
    6374.31  46519.1  27270.4  3164.47
    6378.23  46729.4  27603.2  3205.16
    6382.07  46955.1  27963.6  3255.39
    6386.01  47190.4  28320.5  3300.14
    6389.95  47379.2  28600.9  3339.43
    6393.89  47640.5  28908.8  3386.24
    6397.84  47903.4  29226.2  3430.58
    6401.88  48114.8  29535.1  3471.45
    6405.84  48374.7  29906.5  3521.85
    6409.89  48577.1  30252.4  3566.77
    6413.95  48813.1  30621.9  3613.23
    6418.01  49078.6  30997.8  3669.22
    6422.08  49292.6  31325.3  3720.73
    6426.15  49523.1  31714.3  3775.78
    6430.32  49789.2  32118.8  3831.35
    6434.4  49980.8  32472.8  3876.45
    6438.58  50224.9  32856.3  3925.08
    6442.76  50466.6  33219.3  3972.24
    6446.95  50718.7  33617.8  4032.93
    6451.23  50957.4  34056.9  4099.15
    6455.43  51177.7  34512.4  4172.89
    6459.72  51401.4  34990.5  4248.17
    6463.93  51630.7  35439  4318.98
    6468.24  51847.5  35867.1  4382.31
    6472.55  52085.8  36308.7  4448.17
    6476.95  52325.7  36734.8  4511.56
    6481.28  52581  37155.4  4575.48
    6485.61  52786.9  37560.6  4639.93
    6490.03  53046.4  37986.2  4706.91
    6494.46  53256.3  38388.3  4771.41
    6498.9  53478.8  38765  4823.45
    6503.34  53680.8  39176.2  4883.02
    6507.79  53925.4  39647.8  4953.11
    6512.34  54101.4  40044  5019.74
    6516.8  54346  40468.7  5091.88
    6521.35  54554.1  40854.9  5157.56
    6525.92  54830.8  41331.6  5234.78
    6530.49  55034.9  41777.9  5302.52
    6535.07  55328.6  42308.6  5381.78
    6539.65  55456.8  42718.8  5453.58
    6544.25  55653.6  43214.6  5530.91
    6548.94  55870.8  43742.9  5601.76
    6553.54  56006.6  44194.7  5668.14
    6558.24  56253.9  44734.9  5750.06
    6562.95  56432.8  45246.7  5829.5
    6567.67  56691.2  45834.1  5920.47
    6572.4  56891.1  46358.9  6004.97
    6577.22  57093.5  46861.2  6088
    6581.96  57307.4  47353.1  6168.55
    6586.79  57567.9  47874.4  6260.64
    6591.55  57789.9  48380.3  6344.26
    6596.4  57976.4  48847.6  6423.4
    6601.26  58217.5  49349.5  6501.07
    6606.12  58435.1  49853.9  6592.27
    6611.09  58615.2  50360.8  6667
    6615.97  58864.8  50950.2  6759.27
    6620.95  59141  51577.2  6861.05
    6625.85  59299.6  52084.6  6945.37
    6630.85  59550.8  52696.5  7042.22
    6635.85  59697.6  53201  7133.6
    6640.87  59891.8  53765  7230.5
    6645.89  60090.6  54349.5  7329.93
    6650.92  60338.9  54996.4  7440.9
    6655.96  60465.8  55516.9  7534.39
    6661.1  60690.1  56169.9  7651.41
    6666.15  60895  56765.5  7744.96
    6671.31  60988.4  57258.5  7829.04
    6676.47  61282.4  57936  7936.64
    6681.64  61407.8  58461.1  8027.78
    6686.82  61569.8  59053.7  8134.45
    6692.01  61595.4  59465.7  8211.64
    6697.3  61438.4  59709.3  8261.37
    6702.51  59263  57996.4  8042.62
    6707.72  63306.1  62340  8666.4
    6713.04  63444.7  62941.1  8772.71
    6718.37  63259.8  63192.7  8827.56
    6723.7  63291.5  63688.9  8916.92
    6729.05  63369.7  64225.5  9019.82
    6734.4  63339.4  64687.7  9119.24
    6739.77  63070.7  64878.3  9171.2
    6745.14  63835.5  66137.5  9371.69
    6750.61  62868.8  65613.2  9326.7
    6756  60171.6  63270.4  9018.24
    6761.5  63755  67557.1  9656.32
    6766.91  64775.9  69138.3  9904.92
    6772.42  63271.3  68034.1  9772.04
    6777.94  65184.2  70617.3  10166.7
    6783.48  65141.7  71103  10262.9
    6789.02  65126.6  71580.3  10366.6
    6794.57  65126.2  72104.1  10468.8
    6800.23  64702.2  72167.4  10502.6
    6805.8  61876.8  69565.1  10158.9
    6811.48  67553.8  76507.4  11197.8
    6817.07  66779.5  76208.3  11185.1
    6822.77  66616.6  76603.6  11271
    6828.47  66661.3  77230.4  11391.4
    6834.19  66770.5  77932.8  11524.4
    6839.92  66851.2  78609.6  11654.8
    6845.66  66960.4  79333  11790.9
    6851.4  67001.2  79998.8  11914.4
    6857.16  67134.5  80741.2  12053.5
    6863.03  67150.3  81391.1  12176
    6868.81  67239.7  82088.5  12314.2
    6874.7  67387.5  82853.5  12451.8
    6880.5  67513.9  83607.9  12603
    6886.41  67628.9  84375.8  12749.7
    6892.33  67679.3  85057.3  12886.9
    6898.26  67767.3  85806.2  13031.7
    6904.2  67931.8  86659.7  13194
    6910.15  67966.8  87340.7  13333.8
    6916.11  68110.4  88157.2  13497.2
    6922.09  68096.5  88818.2  13624.1
    6928.18  68129.1  89517.7  13769.5
    6934.17  68289.2  90350.7  13944.4
    6940.28  68364.9  91123.2  14105.9
    6946.3  68416.1  91893.3  14263.9
    6952.43  68457.8  92646.8  14416.4
    6958.57  68545  93463.9  14582.5
    6964.62  68677.8  94337.4  14755
    6970.78  68828.1  95261.5  14945.2
    6976.96  68829.9  95957.1  15089.8
    6983.15  68936.2  96812.2  15258
    6989.35  68926.1  97516.8  15407.7
    6995.66  68978.5  98308  15570.9
    7001.88  69075.4  99127.6  15734.7
    7008.12  69129.9  99893.8  15898
    7014.47  69253.8  100818  16096.8
    7020.72  69364.3  101689  16272.1
    7027.1  69331.3  102363  16423
    7033.38  69369.9  103139  16596.4
    7039.77  69521  104098  16790.3
    7046.18  69548.6  104908  16970.8
    7052.6  69553.7  105687  17142.8
    7059.04  69551.3  106441  17297.3
    7065.48  69633.5  107341  17494.4
    7071.94  69602.2  108074  17658.9
    7078.41  69666.5  108948  17853
    7084.9  69671.2  109743  18027.7
    7091.39  69718.5  110611  18224.8
    7097.9  69756.3  111455  18410.5
    7104.53  69785.6  112285  18600.8
    7111.06  69795.5  113101  18780.5