File: data/Cr/cr2o3_ssrl4_1_rt_001.xdi
# XDI/1.0
# Column.1: energy eV
# Column.2: i0
# Column.3: itrans
# Column.4: irefer
# Beamline.name: SSRL 4-1
# Detector.I0: N2 15cm
# Detector.I1: N2 30cm
# Detector.I2: N2 15cm
# Element.edge: K
# Element.symbol: Cr
# Mono.d_spacing: 3.13550
# Mono.name: Si(111)
# Mono.notes: unfocused, detuned 30%,counter clockwise at E=6200eV
# Sample.formula: Cr2O3
# Sample.name: Cr2O3 chromium sesquioxide
# Sample.prep: powder, mixed 1:100 with B(OH)3 by wt
# Sample.reference: none
# Sample.temperature: room temperature
# Scan.start_time: 1997-01-20 20:45:03
# ///
#    Note: mono d_spacing is nominal!
#     exafs to K15: not great data!!  fluorescence signal included
#     381  E XMU XMUF I0
#-------------
#   energy   i0   itrans  irefer
    5789  520599  39920.7  39067.9
    5799.62  522626  40963.7  40079
    5810.25  523820  41975.7  41058.7
    5820.88  523650  42939.7  41989.8
    5831.5  525324  44042.7  43059.5
    5842.12  526857  45148.7  44130.1
    5852.75  528882  46335.7  45278.6
    5863.37  532952  47684.7  46584.9
    5874  535232  48938.7  47796.9
    5884.62  536946  50185.7  49001.5
    5895.25  538441  51434.7  50207.3
    5905.88  540244  52768.7  51496.1
    5916.5  541259  54042.7  52722.1
    5927.12  543274  55491.7  54112.5
    5937.75  544823  56896.7  55463.8
    5948.38  546022  58260.7  56779.8
    5959  548157  59738.7  58199.3
    5959.76  547709  59777.7  58232.8
    5960.52  548309  59930.7  58381.2
    5961.27  548351  60033.7  58480.5
    5962.03  548511  60140.7  58582.1
    5962.79  548300  60198.7  58638.1
    5963.54  548854  60354.7  58788.8
    5964.3  549239  60483.7  58911.1
    5965.06  548274  60458.7  58883.6
    5965.82  548617  60585.7  59005.6
    5966.58  549230  60749.7  59163
    5967.33  548862  60792.7  59202.5
    5968.09  549402  60950.7  59353.6
    5968.85  549850  61096.7  59495.2
    5969.6  549584  61139.7  59535
    5970.36  549365  61200.7  59592.6
    5971.12  549244  61253.7  59641
    5971.88  549421  61261.7  59647.5
    5972.64  549047  61122.7  59507.5
    5973.39  546260  60961.7  59346.7
    5974.15  544701  61287.7  59662.2
    5974.91  544374  61623.7  59987.1
    5975.67  544551  61688.7  60047.2
    5976.42  544336  61503.7  59862.6
    5977.18  544660  61445.7  59802.1
    5977.94  546821  61787.7  60134.8
    5978.7  548648  62115.7  60451.4
    5979.45  550268  62389.7  60715.9
    5980.21  550571  62503.7  60821.7
    5980.97  551139  62660.7  60972
    5981.73  551034  62723.7  61027
    5982.48  551179  62800.7  61098.9
    5983.24  550107  62700.7  60994.7
    5984  548403  62385.7  60681.7
    5984.76  538946  60478.7  58815.9
    5985.52  511156  56942.7  55354
    5986.27  501377  59064.7  57399.6
    5987.03  524469  61367.7  59642.3
    5987.79  540488  62465.7  60705
    5988.54  545970  62884.7  61088.8
    5989.3  547779  62870.7  61021.7
    5990.06  549392  62811.7  60873
    5990.82  549802  62790.7  60785.5
    5991.58  550517  62909.7  60890.3
    5992.33  550699  62737.7  60664.3
    5993.09  550579  62295.7  60124.8
    5993.85  550333  61813.7  59553.7
    5994.6  547513  61500.7  59211.8
    5995.36  544631  61648.7  59347.9
    5996.12  542098  61634.7  59307.4
    5996.88  542163  61294.7  58910
    5997.64  544061  60760.7  58242.2
    5998.39  547542  60080.7  57307.8
    5999.15  550222  58768.7  55625.4
    5999.91  551210  56827.7  53222.6
    6000.67  551874  54975.7  50929
    6001.42  551981  53692.7  49314.1
    6002.18  552242  52940.7  48359.2
    6002.94  552559  52109.7  47369.7
    6003.7  552423  50837.7  45888.4
    6004.45  552686  49540.7  44348.5
    6005.21  552266  48192.7  42779.5
    6005.97  552596  46650.7  41000.1
    6006.73  552620  45358.7  39472.3
    6007.49  553058  44873.7  38823.7
    6008.24  553048  44917.7  38815.9
    6009  553115  45024.7  38925.1
    6009.01  552979  45001.7  38905.4
    6009.04  552985  45011.7  38912.8
    6009.09  553447  45043.6  38941.7
    6009.15  552956  44986.6  38890.4
    6009.24  553747  45043.5  38937.6
    6009.35  553879  45030.4  38921.8
    6009.47  553710  44970.3  38863.3
    6009.62  553824  44918.2  38802.8
    6009.78  554108  44853  38729.4
    6009.97  554182  44764.9  38632.2
    6010.17  555266  44743.7  38578.1
    6010.39  555214  44597.5  38409.1
    6010.63  555677  44515.3  38298.3
    6010.89  556032  44427.1  38173.7
    6011.17  556312  44390.9  38109.1
    6011.47  556800  44430.6  38112.5
    6011.79  557197  44537.3  38197.8
    6012.13  557826  44813.1  38453.5
    6012.48  558290  45161.7  38801
    6012.86  559162  45666.4  39320.7
    6013.26  559251  46164.1  39865.6
    6013.67  559645  46644.7  40396.7
    6014.1  560477  47180.4  40980.4
    6014.56  561722  47691  41537.5
    6015.03  562184  48043.5  41928.3
    6015.53  562756  48357.2  42271.1
    6016.04  563275  48651.7  42580.4
    6016.57  564164  49007.2  42949.9
    6017.12  565209  49392.8  43349.1
    6017.69  565575  49741.3  43728.2
    6018.28  567217  50191.8  44192
    6018.88  567548  50470.3  44495.6
    6019.51  568635  50718.7  44749.7
    6020.16  569744  50872.2  44894.2
    6020.83  570414  50848.6  44848.3
    6021.51  571752  50817  44765.2
    6022.21  572390  50688.4  44579.8
    6022.94  573431  50646.8  44480.6
    6023.69  574847  50725.2  44502.7
    6024.44  575631  50811.5  44555.1
    6025.23  577104  51072.9  44786.1
    6026.03  577711  51400.2  45108.4
    6026.85  579144  51937.5  45657.7
    6027.69  580707  52639.8  46394
    6028.55  581526  53284  47087.1
    6029.43  582840  53977.3  47830.1
    6030.32  583995  54629.5  48537
    6031.24  585639  55277.7  49219.1
    6032.18  587337  55860.9  49828.6
    6033.14  588544  56372.1  50365.7
    6034.11  589836  56859.3  50870.5
    6035.1  591226  57367.5  51395.3
    6036.12  592728  57862.6  51903.8
    6037.15  593814  58232.7  52280.1
    6038.2  595744  58626.8  52660.9
    6039.27  597224  58947.9  52954.8
    6040.36  598784  59193  53168
    6041.47  600024  59344  53275.5
    6042.6  601907  59512  53381.7
    6043.75  603247  59645.1  53456.5
    6044.92  605201  59914.1  53669.1
    6046.11  606781  60185.1  53900.1
    6047.31  608535  60455  54127.1
    6048.54  610396  60660  54277.6
    6049.79  608885  60499.9  54067.2
    6051.05  613826  60728.9  54184
    6052.33  615758  60670.8  54021.8
    6053.64  617926  60684.7  53927.4
    6054.96  619518  60699.5  53857.1
    6056.3  621250  60780.4  53852.8
    6057.66  622703  60775.2  53760.7
    6059.04  624396  60794.1  53683.3
    6060.44  625469  60767.9  53568
    6061.86  627281  60842.7  53547.5
    6063.3  629454  60986.4  53605
    6064.76  631195  61177.2  53723
    6066.23  633132  61454.9  53936
    6067.73  635551  61777.7  54189.2
    6069.24  637104  62041.3  54390.9
    6070.78  639891  62494  54776.6
    6072.34  642191  62974.7  55205.7
    6073.91  644238  63483.4  55675.5
    6075.5  646619  64067  56218
    6077.11  648738  64567.6  56679.4
    6078.74  650995  65096.3  57161.7
    6080.4  653915  65754.8  57772
    6082.07  655997  66374.5  58367.2
    6083.76  657952  67040  59007.7
    6085.47  660438  67735.5  59677.6
    6087.19  663501  68494  60399.2
    6088.94  665363  69125.6  61001.7
    6090.7  668402  69911.1  61749.5
    6092.49  670380  70548.5  62363.2
    6094.3  673279  71237  63004.5
    6096.12  676388  71822.5  63516.8
    6097.97  678362  72173.9  63794.9
    6099.83  681475  72662.3  64185.1
    6101.71  684291  73163.7  64598.7
    6103.61  687138  73740.1  65095.9
    6105.53  689627  74320.4  65605.8
    6107.47  692794  75024.7  66241.2
    6109.43  695290  75681.1  66841.2
    6111.41  697987  76345.4  67442.2
    6113.41  701003  77013.7  68032.5
    6115.43  703974  77617  68551.4
    6117.46  707086  78194.2  69028.5
    6119.52  709565  78718.5  69468.8
    6121.6  712677  79381.8  70041.3
    6123.69  715513  80044.9  70624.9
    6125.81  719133  80830.1  71315.9
    6127.94  722361  81523.4  71920.2
    6130.09  725305  82213.5  72517.6
    6132.26  728410  82852.6  73051.2
    6134.45  731332  83389.8  73478
    6136.66  734129  83907.9  73873.7
    6138.89  737764  84545  74376.6
    6141.14  740466  85060.1  74777.8
    6143.41  744013  85727.1  75312.9
    6145.7  747951  86476.2  75929
    6148.01  750852  87169.2  76518.6
    6150.33  754277  88014.3  77257
    6152.68  757974  88938.2  78080.8
    6155.05  760916  89731.2  78778.7
    6157.43  764937  90503.2  79411
    6159.83  768869  91153.2  79897.9
    6162.26  771542  91710.1  80315.2
    6164.7  775232  92463  80925.2
    6167.16  778338  93232.9  81564.4
    6169.64  782575  94286.8  82511.9
    6172.14  786213  95430.6  83570.8
    6174.66  790802  96765.5  84811.3
    6177.2  793597  97726.4  85691.7
    6179.76  797710  98740.2  86576
    6182.33  800817  99534.9  87238
    6184.93  804578  100452  88013.9
    6187.55  807892  101405  88843.5
    6190.18  811751  102452  89762.1
    6192.84  816355  103638  90805.3
    6195.51  820510  104877  91921.4
    6198.2  823924  106146  93103.5
    6200.92  827442  107478  94353.3
    6203.65  832260  108962  95722.9
    6206.4  836349  110228  96864.4
    6209.17  839463  111220  97723.6
    6211.96  844192  112387  98711.6
    6214.77  847888  113384  99543.1
    6217.6  851869  114346  100317
    6220.45  856482  115302  101052
    6223.31  860246  116101  101636
    6226.2  865305  117152  102456
    6229.1  869152  118099  103202
    6232.03  873396  119227  104134
    6234.97  876306  119916  104722
    6237.94  870972  120808  105509
    6240.92  885952  123180  107579
    6243.92  871438  121730  106292
    6246.94  892850  125675  109737
    6249.98  898767  127256  111119
    6253.04  903337  128678  112355
    6256.12  907868  130064  113544
    6259.22  912010  131333  114596
    6262.34  916911  132642  115668
    6265.48  921584  133994  116801
    6268.63  926347  135542  118139
    6271.81  931473  137197  119584
    6275.01  935118  138659  120874
    6278.22  940041  140392  122404
    6281.45  944795  142037  123833
    6284.71  949742  143672  125238
    6287.98  954808  145245  126574
    6291.27  959619  146777  127850
    6294.58  964565  148363  129179
    6297.91  969428  149956  130526
    6301.26  974195  151499  131794
    6304.63  978600  152966  132992
    6308.02  983480  154572  134317
    6311.43  988398  156321  135811
    6314.85  993257  158168  137412
    6318.3  998634  160173  139160
    6321.77  1.00303e+06  161997  140755
    6325.25  1.00864e+06  164117  142617
    6328.76  1.01399e+06  166266  144519
    6332.28  1.01882e+06  168289  146287
    6335.82  1.02381e+06  170271  148006
    6339.38  1.02934e+06  172340  149785
    6342.97  1.03476e+06  174339  151465
    6346.56  1.03991e+06  176256  153052
    6350.19  1.04474e+06  178094  154578
    6353.82  1.05021e+06  180069  156198
    6357.48  1.05631e+06  182232  157996
    6361.16  1.06054e+06  184080  159537
    6364.86  1.06573e+06  186146  161256
    6368.57  1.0714e+06  188324  163078
    6372.31  1.07685e+06  190563  164964
    6376.07  1.08258e+06  192966  167014
    6379.84  1.08762e+06  195260  168979
    6383.63  1.09411e+06  197810  171158
    6387.45  1.09865e+06  199901  172884
    6391.28  1.10448e+06  202216  174786
    6395.13  1.11013e+06  204518  176671
    6399  1.11528e+06  206813  178584
    6402.89  1.12147e+06  209407  180776
    6406.8  1.12639e+06  211810  182804
    6410.73  1.13164e+06  214315  184910
    6414.68  1.13963e+06  217312  187441
    6418.65  1.14324e+06  219457  189221
    6422.63  1.14973e+06  222283  191602
    6426.64  1.15531e+06  224979  193887
    6430.67  1.16097e+06  227699  196175
    6434.71  1.16628e+06  230316  198363
    6438.77  1.17216e+06  233005  200606
    6442.86  1.17799e+06  235753  202895
    6446.96  1.18437e+06  238748  205422
    6451.08  1.18943e+06  241639  207903
    6455.22  1.197e+06  245154  210949
    6459.38  1.20142e+06  247940  213323
    6463.56  1.20785e+06  251162  216078
    6467.76  1.21327e+06  254134  218597
    6471.98  1.22045e+06  257500  221416
    6476.22  1.22626e+06  260537  223936
    6480.48  1.23205e+06  263574  226452
    6484.75  1.23704e+06  266506  228889
    6489.05  1.24323e+06  269741  231556
    6493.36  1.25042e+06  273145  234360
    6497.7  1.25558e+06  276127  236796
    6502.05  1.26177e+06  279453  239531
    6506.42  1.26875e+06  283085  242538
    6510.82  1.27414e+06  286302  245206
    6515.23  1.28092e+06  289829  248090
    6519.66  1.28713e+06  293150  250769
    6524.11  1.29381e+06  296742  253733
    6528.58  1.30032e+06  300429  256791
    6533.07  1.30545e+06  303905  259662
    6537.58  1.31155e+06  307693  262800
    6542.1  1.31895e+06  311903  266334
    6546.65  1.3253e+06  315903  269711
    6551.21  1.3317e+06  319948  273109
    6555.8  1.33759e+06  323900  276421
    6560.41  1.34348e+06  327973  279828
    6565.03  1.35012e+06  332273  283444
    6569.67  1.35694e+06  336641  287109
    6574.33  1.3632e+06  340887  290645
    6579.02  1.36964e+06  345074  294085
    6583.72  1.3765e+06  349388  297601
    6588.44  1.38202e+06  353425  300860
    6593.18  1.38931e+06  357898  304475
    6597.94  1.39539e+06  362107  307900
    6602.72  1.40219e+06  366528  311465
    6607.52  1.40991e+06  371347  315407
    6612.33  1.41608e+06  375914  319204
    6617.17  1.42215e+06  380564  323073
    6622.02  1.42863e+06  385366  327039
    6626.9  1.43683e+06  390632  331378
    6631.79  1.44344e+06  395512  335404
    6636.71  1.44932e+06  400302  339356
    6641.64  1.45506e+06  405093  343288
    6646.59  1.46246e+06  410559  347811
    6651.56  1.4688e+06  415626  351972
    6656.55  1.47499e+06  420802  356242
    6661.56  1.48241e+06  426331  360795
    6666.59  1.48849e+06  431421  364951
    6671.64  1.49695e+06  437329  369789
    6676.71  1.50258e+06  442407  373928
    6681.8  1.50837e+06  447643  378186
    6686.9  1.51495e+06  453047  382565
    6692.03  1.52158e+06  458536  386977
    6697.18  1.52709e+06  463721  391118
    6702.34  1.53073e+06  468267  394784
    6707.52  1.53325e+06  471591  397408
    6712.73  1.50566e+06  463468  390317
    6717.95  1.5095e+06  485333  408670
    6723.19  1.55438e+06  488568  410832
    6728.45  1.57833e+06  502836  422822
    6733.73  1.582e+06  508135  427158
    6739.03  1.57432e+06  506142  425300
    6744.35  1.5913e+06  519862  436620
    6749.69  1.59585e+06  525102  440878
    6755.04  1.61221e+06  536586  450303
    6760.42  1.61588e+06  541221  454037
    6765.82  1.58808e+06  536969  450372
    6771.24  1.63158e+06  556140  466224
    6776.67  1.63353e+06  561449  470464
    6782.12  1.62214e+06  558530  467764
    6787.6  1.57796e+06  560792  469636
    6793.09  1.63798e+06  570169  476791
    6798.6  1.67886e+06  597590  499757
    6804.13  1.68111e+06  602880  503996
    6809.68  1.68554e+06  609479  509317
    6815.25  1.69118e+06  616658  515102
    6820.84  1.69697e+06  624027  521036
    6826.45  1.70357e+06  631668  527171
    6832.08  1.71307e+06  640672  534459
    6837.73  1.7168e+06  647493  539935
    6843.39  1.72312e+06  655412  546261
    6849.08  1.72995e+06  663669  552846
    6854.78  1.73658e+06  671929  559482
    6860.51  1.7432e+06  680309  566195
    6866.25  1.74954e+06  688600  572815