File: data/Cr/cr2o3_100K_002.xdi
# XDI/1.0
# Column.1: energy eV
# Column.2: i0
# Column.3: itrans
# Column.4: irefer
# Beamline.name: SSRL 2-3
# Beamline.notes: vert slits = 0.6mm
# Detector.I0: N2 15cm
# Detector.I1: N2 30cm
# Detector.I2: N2 15cm
# Element.edge: K
# Element.symbol: Cr
# Mono.d_spacing: 3.13550
# Mono.name: Si(111)
# Mono.notes: unfocused, detuned 75%, clockwise at E=5990eV
# Sample.formula: Cr2O3
# Sample.name: Cr2O3
# Sample.prep: powder on tape (4 layers)
# Sample.reference: Cr foil
# Sample.temperature: 100K
# Scan.start_time: 1997-04-18 21:40:35
# ///
#    Note: mono d_spacing is nominal!
#     exafs to K16
#     396  E XMU XMUR I0
#-------------
#   energy   i0   itrans  irefer
    5759.99  210667  10964.7  1402.3
    5769.98  210749  11187.7  1439.3
    5780.01  210682  11398.7  1474.3
    5790  210565  11618.7  1512.3
    5799.97  210435  11834.7  1550.3
    5810.03  210369  12059.7  1590.3
    5820  210073  12275.7  1629.3
    5830  210013  12509.7  1669.3
    5839.97  209787  12733.7  1710.3
    5849.98  209805  12976.7  1754.3
    5860.02  209488  13200.7  1794.3
    5870.02  209242  13435.7  1837.3
    5879.99  209017  13665.7  1879.3
    5890  208796  13898.7  1923.3
    5899.97  208458  14128.7  1966.3
    5909.98  208128  14356.7  2011.3
    5920.02  207870  14604.7  2056.3
    5930.03  207474  14827.7  2100.3
    5939.99  207192  15068.7  2147.3
    5950  206981  15302.7  2188.3
    5959.97  206739  15534.7  2235.3
    5969.97  206294  15735.7  2274.3
    5970.49  206186  15739.7  2275.3
    5971.01  205868  15731.7  2274.3
    5971.53  204628  15642.7  2260.3
    5971.97  203328  15553.7  2251.3
    5972.49  202769  15523.7  2247.3
    5973.01  204178  15648.7  2263.3
    5973.53  205836  15779.7  2285.3
    5973.98  206355  15832.7  2292.3
    5974.5  206443  15854.7  2298.3
    5975.02  206673  15877.7  2302.3
    5975.46  206646  15879.7  2301.3
    5975.98  206523  15884.7  2301.3
    5976.51  206439  15888.7  2303.3
    5977.03  206598  15916.7  2307.3
    5977.47  206622  15929.7  2308.3
    5977.99  206569  15926.7  2310.3
    5978.52  206417  15931.7  2310.3
    5979.04  206576  15950.7  2313.3
    5979.48  206708  15973.7  2315.3
    5980.01  206718  15976.7  2319.3
    5980.53  206643  15980.7  2317.3
    5980.97  206629  15987.7  2319.3
    5981.49  206725  15995.7  2319.3
    5982.02  206758  16008.7  2321.3
    5982.46  206783  16019.7  2323.3
    5982.99  206721  16017.7  2322.3
    5983.51  206874  16037.7  2324.3
    5984.03  207002  16050.7  2328.3
    5984.48  206908  16053.7  2326.3
    5985  206420  16016.7  2321.3
    5985.52  204776  15892.7  2302.3
    5985.97  201275  15622.7  2261.3
    5986.49  191474  14864.7  2151.3
    5987.02  179429  13925.7  2014.3
    5987.46  180689  14022.7  2025.3
    5987.99  191112  14822.7  2136.3
    5988.51  197308  15291.7  2193.3
    5989.03  200776  15536.7  2215.3
    5989.48  202483  15643.7  2207.3
    5990  203600  15660.7  2159.3
    5990.53  204177  15561.7  2078.3
    5990.98  204299  15359.7  2006.3
    5991.5  204505  15105.7  1931.3
    5992.02  204652  15049.7  1887.3
    5992.47  204796  15149.7  1873.3
    5992.99  204910  15152.7  1847.3
    5993.52  205028  14936.7  1798.3
    5993.97  205059  14666.7  1749.3
    5994.49  205116  14346.7  1697.3
    5995.02  204914  14092.7  1655.3
    5995.47  204778  14027.7  1642.3
    5995.99  204626  14060.7  1644.3
    5996.51  204776  14119.7  1652.3
    5996.96  204698  14098.7  1650.3
    5997.49  204401  14024.7  1636.3
    5998.01  204522  13925.7  1611.3
    5998.54  204721  13699.7  1564.3
    5998.99  204764  13359.7  1500.3
    5999.51  204746  12709.7  1399.3
    6000.04  204490  11796.7  1271.3
    6000.49  203948  10816.7  1147.3
    6001.01  202665  9488.7   986.3
    6001.46  201586  8432.7   863.3
    6001.99  201390  7392.7   745.301
    6002.51  202795  6645.7   659.3
    6002.96  204056  6295.7   618.3
    6003.49  204737  6086.7   591.3
    6004.02  204651  5848.7   562.3
    6004.47  204547  5529.7   525.3
    6004.99  204474  5036.7   476.3
    6005.52  204496  4504.7   422.3
    6005.97  204570  4115.7   382.3
    6006.5  204544  3724.7   343.3
    6007.02  204394  3288.7   300.3
    6007.47  204457  2887.7   261.3
    6008  204568  2470.7   222.3
    6008.53  204564  2223.7   198.3
    6008.98  204263  2153.7   191.3
    6009.5  204375  2184.7   192.3
    6010.03  204386  2252.7   196.3
    6010.94  204387  2267.46   196.064
    6011.84  204531  2081.73   180.358
    6012.82  204439  1917.51   172.181
    6013.8  204423  1991.81   184.534
    6014.78  204571  2335.62   217.415
    6015.76  204797  2678.94   250.826
    6016.81  204873  2900.78   269.765
    6017.8  205034  3034.13   279.234
    6018.93  204866  3244   294.233
    6019.99  205198  3441.38   309.76
    6021.12  205234  3556.27   318.817
    6022.18  205550  3523.68   316.402
    6023.39  205680  3349.6   302.518
    6024.52  205924  3202.03   292.162
    6025.73  206044  3141.98   286.335
    6026.87  206552  3154.44   285.038
    6028.16  207040  3323.41   297.27
    6029.37  206993  3596.9   318.031
    6030.58  207214  3909.91   343.321
    6031.87  207445  4215.42   369.141
    6033.16  207749  4473.45   391.49
    6034.53  208252  4693.99   410.367
    6035.82  208533  4874.05   426.774
    6037.19  209079  5064.62   440.711
    6038.56  209470  5212.7   451.176
    6040  209869  5289.3   456.171
    6041.37  210183  5325.41   458.695
    6042.82  210872  5323.03   459.748
    6044.26  211324  5267.17   456.331
    6045.71  211830  5222.82   456.442
    6047.24  211958  5223.99   458.083
    6048.76  212579  5245.66   463.252
    6050.29  213144  5215.85   463.952
    6051.82  213919  5109.56   460.181
    6053.42  214514  4928.78   448.938
    6054.95  215284  4767.51   439.225
    6056.56  215651  4650.76   432.041
    6058.24  216198  4553.52   426.386
    6059.85  216657  4423.79   417.26
    6061.53  217105  4285.58   405.664
    6063.22  217369  4166.88   395.597
    6064.91  217962  4075.7   384.059
    6066.68  218686  4034.02   377.05
    6068.36  219376  4029.86   372.57
    6070.13  219998  4021.22   366.621
    6071.9  220823  4026.09   364.199
    6073.75  221970  4085.47   367.307
    6075.52  222813  4174.37   378.944
    6077.37  223800  4276.78   393.111
    6079.22  224571  4355.7   406.807
    6081.15  225374  4428.14   420.031
    6083  226273  4537.09   435.786
    6084.93  227135  4687.55   457.069
    6086.87  228060  4835.53   470.881
    6088.8  228924  4965.02   481.223
    6090.81  229780  5103.03   486.094
    6092.83  230892  5254.54   490.494
    6094.84  231806  5397.58   493.423
    6096.86  232698  5483.12   489.882
    6098.88  233684  5494.18   482.87
    6100.98  234649  5481.76   478.387
    6103.07  235773  5491.84   483.433
    6105.18  236780  5535.44   493.008
    6107.28  237831  5619.56   513.112
    6109.46  238682  5715.18   532.746
    6111.64  239776  5821.32   554.909
    6113.83  240826  5907.98   571.601
    6116.01  242064  5965.14   582.822
    6118.28  243413  5990.83   588.573
    6120.47  244599  6015.02   588.853
    6122.74  245781  6076.73   594.662
    6125.01  246904  6159.95   602
    6127.36  248009  6234.69   610.868
    6129.64  249334  6303.94   623.264
    6131.99  250571  6366.71   633.191
    6134.35  251582  6386.98   637.645
    6136.79  252850  6370.77   638.629
    6139.15  254129  6357.07   638.143
    6141.59  255614  6355.89   634.185
    6144.04  256809  6358.22   634.757
    6146.48  258247  6385.07   635.858
    6148.93  259505  6439.43   637.488
    6151.46  260716  6535.3   643.648
    6153.99  262089  6669.68   658.336
    6156.53  263528  6767.58   666.554
    6159.06  265035  6775.99   662.302
    6161.6  266478  6736.92   651.578
    6164.22  267952  6724.37   644.383
    6166.84  269334  6761.32   644.718
    6169.47  270687  6842.79   654.582
    6172.1  272200  6996.76   676.975
    6174.81  273722  7226.26   709.897
    6177.52  275402  7433.27   738.349
    6180.23  276714  7537.79   757.329
    6182.95  278705  7604.82   770.839
    6185.67  279629  7640.37   777.878
    6188.47  281268  7733.44   788.447
    6191.27  282787  7834.01   801.544
    6194.08  284794  7974.1   818.17
    6196.89  286397  8165.7   841.327
    6199.7  287620  8410.82   868.012
    6202.6  289274  8699.45   900.227
    6205.5  291154  8944.6   928.971
    6208.4  292662  9095.26   951.244
    6211.3  294223  9184.42   967.044
    6214.21  296021  9256.11   980.376
    6217.2  297776  9311.31   986.236
    6220.2  299555  9317.02   985.625
    6223.19  301246  9269.24   975.544
    6226.19  303181  9238.98   966.992
    6229.2  304569  9231.24   961.97
    6232.28  306314  9283.01   961.477
    6235.38  304856  9311.29   957.512
    6238.47  310847  9615.08   986.077
    6241.56  304450  9512.39   973.171
    6244.75  312216  9834.21  1004.79
    6247.85  314959  10022.5  1025.95
    6251.04  317257  10214.4  1055.63
    6254.23  318793  10368.8  1085.84
    6257.43  320424  10492.6  1115.58
    6260.71  322797  10586  1135.85
    6263.91  324624  10624.9  1147.65
    6267.2  326326  10718.3  1159.97
    6270.49  328113  10886.3  1179.83
    6273.79  330030  11067.7  1203.22
    6277.17  332233  11297.7  1230.13
    6280.48  333977  11501.1  1259.58
    6283.86  336010  11694.1  1279.55
    6287.26  337884  11847.6  1298.05
    6290.65  339697  11962.6  1311.09
    6294.06  341693  12081.1  1327.65
    6297.54  343722  12217.2  1349.74
    6300.95  345615  12339.7  1369.36
    6304.45  347341  12399.8  1379.51
    6307.95  349750  12480.4  1392.18
    6311.54  351734  12602.5  1408.39
    6315.05  353771  12798.1  1432.13
    6318.56  355679  13029.2  1453.39
    6322.16  357694  13250.8  1475.19
    6325.77  360249  13510  1502.51
    6329.38  361914  13789.6  1533.37
    6333.07  363738  14078.8  1563.75
    6336.69  365906  14328.5  1593.66
    6340.4  368212  14554.7  1625.1
    6344.11  370283  14736.4  1651.07
    6347.83  372097  14852.7  1671.57
    6351.55  375086  14999.4  1693.6
    6355.27  377214  15117.6  1715.16
    6359.09  379387  15272.4  1739.24
    6362.82  381178  15420.7  1767.86
    6366.65  382589  15549.5  1791.01
    6370.47  384391  15694.8  1818.68
    6374.31  386597  15888.6  1844.88
    6378.23  388707  16150  1875.62
    6382.07  391387  16462.8  1914.88
    6386.01  393552  16717.2  1948.67
    6389.95  395526  16874.1  1966.99
    6393.89  397857  17015.5  1990.84
    6397.84  400056  17159.4  2012.22
    6401.88  402352  17359.8  2037.13
    6405.84  404500  17601.7  2066.57
    6409.89  406188  17834.2  2100.53
    6413.95  408698  18073.1  2136.03
    6418.01  411152  18297.6  2167.05
    6422.08  413379  18519.6  2202.61
    6426.15  415565  18785.1  2233.69
    6430.32  417780  19063.1  2269.31
    6434.4  420273  19328.6  2299.45
    6438.58  422368  19548.7  2332.12
    6442.76  424269  19721.2  2351.32
    6446.95  426636  19957.3  2389.05
    6451.23  428946  20272.9  2431.31
    6455.43  431361  20682  2491.09
    6459.72  432922  21063.6  2545.41
    6463.93  435509  21418.7  2600.26
    6468.24  438023  21760.3  2646.63
    6472.55  440256  22065.5  2688.54
    6476.95  442880  22369.2  2735.97
    6481.28  444704  22594.4  2771.94
    6485.61  447297  22886  2814.43
    6490.03  449277  23128.2  2853.45
    6494.46  451665  23361  2890
    6498.9  454444  23598.2  2922.08
    6503.34  456543  23834.9  2958.69
    6507.79  458733  24141.2  3003.83
    6512.34  460911  24468  3055.5
    6516.8  462675  24663.2  3086.69
    6521.35  465429  24871.1  3130.42
    6525.92  467743  25133.4  3175.67
    6530.49  470020  25448.2  3226.46
    6535.07  472131  25771.5  3274.77
    6539.65  473893  26094.4  3323.61
    6544.25  475919  26469.8  3378.99
    6548.94  478119  26870.6  3432.89
    6553.54  480827  27278  3496.32
    6558.24  482828  27633.9  3549.28
    6562.95  484749  28062.4  3612.76
    6567.67  486971  28538.3  3684.78
    6572.4  489698  28999.8  3752.33
    6577.22  491711  29363.7  3812.41
    6581.96  493828  29651.2  3860.01
    6586.79  496169  29965.2  3908.15
    6591.55  497568  30208.7  3956.81
    6596.4  499895  30477.7  4001
    6601.26  502282  30729.2  4042.73
    6606.12  504121  30968.3  4084.98
    6611.09  506601  31328.8  4143.76
    6615.97  508889  31760.9  4212.07
    6620.95  511192  32233.5  4281.91
    6625.85  513062  32631.6  4345.28
    6630.85  516084  33074.2  4417.18
    6635.85  517867  33475.3  4479.61
    6640.87  520463  33919  4556.56
    6645.89  522424  34352.1  4631.05
    6650.92  524135  34778.8  4702.06
    6655.96  526810  35254  4781.6
    6661.1  529323  35767.7  4859.68
    6666.15  531593  36215.9  4931.28
    6671.31  533419  36598.6  4996.41
    6676.47  535370  36985.8  5059.07
    6681.64  537433  37400.6  5131.26
    6686.82  539494  37823.9  5203.98
    6692.01  540332  38120.6  5256.23
    6697.3  540061  38338.9  5292
    6702.51  514797  36738.7  5084.31
    6707.72  560237  40322  5600.14
    6713.04  555337  40238.9  5602.52
    6718.37  555420  40523.2  5654.4
    6723.7  556082  40871.1  5721.83
    6729.05  557630  41303.4  5796.78
    6734.4  557753  41662.3  5865.26
    6739.77  564510  42505.7  5999.28
    6745.14  563150  42729.6  6043.82
    6750.61  551008  42137.1  5976.89
    6756  564466  43526  6188.49
    6761.5  559258  43442.5  6193.61
    6766.91  572445  44873.4  6415.27
    6772.42  563064  44539.9  6383.45
    6777.94  577875  46062.9  6617.17
    6783.48  578445  46449.4  6692.42
    6789.02  578605  46799.4  6756.19
    6794.57  580012  47247  6837.49
    6800.23  577620  47394  6884.32
    6805.8  547837  45652.6  6643.69
    6811.48  597192  49820.6  7275.58
    6817.07  595184  50090.3  7328
    6822.77  595303  50565.3  7419.94
    6828.47  596520  51098  7515.43
    6834.19  598216  51636.1  7615.43
    6839.92  599836  52196.7  7716.97
    6845.66  601017  52757.9  7820.03
    6851.4  603242  53382.6  7932.63
    6857.16  605137  53959.7  8041.76
    6863.03  606522  54540.5  8154.41
    6868.81  608455  55148.7  8265.59
    6874.7  610223  55688.4  8368.3
    6880.5  610876  56113.6  8454.54
    6886.41  611899  56602.4  8546.31
    6892.33  613771  57203.6  8664.61
    6898.26  615603  57814.4  8777.45
    6904.2  618047  58479.7  8903.8
    6910.15  619819  59143.5  9027.68
    6916.11  621750  59813.9  9157.11
    6922.09  621546  60283.6  9251.05
    6928.18  623615  60972  9384.52
    6934.17  626019  61671.8  9519.52
    6940.28  626923  62268.2  9634.06
    6946.3  628223  62889.2  9761.13
    6952.43  629724  63600.6  9898.72
    6958.57  631747  64342.5  10045.8
    6964.62  632965  65013.9  10177.5
    6970.78  633742  65618.8  10300.7
    6976.96  636055  66432.3  10448.4
    6983.15  636953  67007.3  10565.6
    6989.35  637956  67638.7  10684.4
    6995.66  639258  68297.8  10813.7
    7001.88  640494  68940.2  10946.5
    7008.12  641096  69513.3  11066.9
    7014.47  642944  70212.8  11211.7
    7020.72  643728  70783.8  11335.1
    7027.1  644774  71428.4  11466.1
    7033.38  646764  72191.5  11622.6
    7039.77  648677  72962.1  11769.6
    7046.18  649839  73656.2  11909.1
    7052.6  650675  74311.8  12045.1
    7059.04  651585  75009.9  12187.7
    7065.48  652800  75763.6  12343.9
    7071.94  654054  76542.8  12503.5
    7078.41  655717  77344.4  12670.7
    7084.9  656661  78107.6  12829.4
    7091.39  657548  78861.3  12985.6
    7097.9  658412  79522.5  13128.4
    7104.53  659740  80240.3  13281.7
    7111.06  660909  80971.5  13434.5