File: data/Cr/cr2s3_rt_001.xdi
# XDI/1.0
# Column.1: energy eV
# Column.2: i0
# Column.3: itrans
# Beamline.name: SSRL 4-1
# Detector.I0: N2 15cm
# Detector.I1: N2 30cm
# Detector.I2: N2 15cm
# Element.edge: K
# Element.symbol: Cr
# Mono.d_spacing: 3.13550
# Mono.name: Si(111)
# Mono.notes: unfocused, detuned 30%,counter clockwise at E=6200eV
# Sample.formula: Cr2S3
# Sample.name: Cr2S3 chromium sesquisulfide
# Sample.prep: powder, mixed 1:50 with B(OH)3 by wt
# Sample.reference: none
# Sample.temperature: room temperature
# Scan.start_time: 1997-01-20 15:45:55
# ///
#    Note: mono d_spacing is nominal!
#     exafs to K15
#     381  E XMU I0
#-------------
#   energy   i0   itrans
    5789  249607  144543
    5799.62  250244  149488
    5810.25  250964  154675
    5820.88  251510  159902
    5831.5  251898  165174
    5842.12  252522  170782
    5852.75  253033  176427
    5863.37  252994  181812
    5874  253643  187868
    5884.62  253981  193889
    5895.25  254202  199973
    5905.88  254402  206114
    5916.5  254351  212238
    5927.12  254632  218809
    5937.75  255217  225824
    5948.38  255445  232558
    5959  255519  239378
    5959.76  255531  239844
    5960.52  255140  239937
    5961.27  255646  240908
    5962.03  255602  241376
    5962.79  255495  241766
    5963.54  255983  242710
    5964.3  255832  243064
    5965.06  255619  243306
    5965.82  255752  243919
    5966.58  255631  244320
    5967.33  255764  244935
    5968.09  255483  245105
    5968.85  255617  245743
    5969.6  255810  246433
    5970.36  255543  246639
    5971.12  255973  247524
    5971.88  255584  247519
    5972.64  254500  246972
    5973.39  253252  246290
    5974.15  253174  246888
    5974.91  253811  248176
    5975.67  253620  248372
    5976.42  253158  248101
    5977.18  254183  249436
    5977.94  255087  250871
    5978.7  255342  251639
    5979.45  255720  252437
    5980.21  255861  253050
    5980.97  255825  253482
    5981.73  255902  253982
    5982.48  255333  253856
    5983.24  254991  253885
    5984  251743  251138
    5984.76  241041  240905
    5985.52  232801  232796
    5986.27  242634  242499
    5987.03  250324  250315
    5987.79  252643  252506
    5988.54  254046  252449
    5989.3  254623  250768
    5990.06  254963  248618
    5990.82  255198  247038
    5991.58  255544  246721
    5992.33  255786  246873
    5993.09  255089  245237
    5993.85  254008  240900
    5994.6  251924  230729
    5995.36  250911  216586
    5996.12  250790  202298
    5996.88  251631  191593
    5997.64  253187  185221
    5998.39  254691  182923
    5999.15  255084  183392
    5999.91  255170  186276
    6000.67  255559  190210
    6001.42  255210  192721
    6002.18  255346  193895
    6002.94  255442  192830
    6003.7  255571  190593
    6004.45  255534  188203
    6005.21  255631  186362
    6005.97  255414  184564
    6006.73  255435  183329
    6007.49  255332  182191
    6008.24  255818  181546
    6009  255593  180277
    6009.01  255608  180260
    6009.04  255627  180204
    6009.09  255668  180216
    6009.15  255442  179971
    6009.24  255720  180056
    6009.35  255792  179980
    6009.47  256015  179972
    6009.62  256028  179833
    6009.78  255900  179556
    6009.97  256190  179643
    6010.17  256214  179494
    6010.39  256352  179503
    6010.63  256467  179515
    6010.89  256669  179628
    6011.17  257011  179951
    6011.47  256762  179870
    6011.79  257169  180398
    6012.13  257507  180941
    6012.48  257647  181354
    6012.86  258129  182112
    6013.26  258021  182503
    6013.67  258525  183242
    6014.1  258776  183821
    6014.56  259130  184363
    6015.03  259560  184989
    6015.53  259712  185266
    6016.04  259688  185348
    6016.57  260233  185869
    6017.12  260801  186422
    6017.69  261176  186864
    6018.28  261424  187360
    6018.88  261631  187868
    6019.51  262038  188539
    6020.16  262480  189311
    6020.83  262553  189792
    6021.51  262978  190602
    6022.21  263879  191900
    6022.94  264164  192989
    6023.69  264680  194256
    6024.44  264864  195502
    6025.23  265522  197348
    6026.03  266123  199099
    6026.85  266586  200844
    6027.69  267183  202540
    6028.55  267633  204201
    6029.43  268140  206073
    6030.32  268850  208396
    6031.24  269235  210658
    6032.18  269830  213156
    6033.14  270247  215399
    6034.11  270958  217626
    6035.1  271492  219327
    6036.12  272201  220824
    6037.15  272858  221935
    6038.2  273571  222887
    6039.27  274309  223617
    6040.36  274612  223789
    6041.47  275391  224430
    6042.6  276111  225087
    6043.75  277020  226041
    6044.92  277402  226375
    6046.11  278212  226890
    6047.31  278778  227070
    6048.54  279656  227278
    6049.79  280665  227797
    6051.05  281468  228325
    6052.33  281522  228439
    6053.64  282556  229220
    6054.96  283452  229835
    6056.3  284059  230059
    6057.66  284715  230304
    6059.04  285315  230659
    6060.44  285911  231333
    6061.86  286269  232019
    6063.3  287447  233607
    6064.76  288233  235140
    6066.23  289076  236894
    6067.73  290105  238902
    6069.24  291011  240748
    6070.78  291816  242260
    6072.34  292662  244159
    6073.91  293648  246848
    6075.5  294438  250036
    6077.11  295449  253697
    6078.74  296505  257684
    6080.4  297182  261174
    6082.07  298367  264889
    6083.76  299659  268512
    6085.47  300517  271537
    6087.19  301693  274724
    6088.94  302654  277400
    6090.7  303851  280098
    6092.49  304534  281925
    6094.3  305771  284169
    6096.12  306839  286133
    6097.97  307856  287964
    6099.83  309105  290092
    6101.71  310374  292156
    6103.61  311104  293664
    6105.53  312645  295730
    6107.47  313714  297058
    6109.43  314526  297878
    6111.41  316312  299609
    6113.41  317121  300616
    6115.43  318120  302064
    6117.46  319713  304305
    6119.52  320977  306506
    6121.6  321776  308715
    6123.69  323252  311956
    6125.81  324827  315633
    6127.94  325547  318630
    6130.09  326776  322247
    6132.26  328392  326120
    6134.45  329878  329737
    6136.66  330895  333110
    6138.89  332165  336861
    6141.14  333634  341031
    6143.41  334957  345178
    6145.7  336206  349084
    6148.01  337342  352854
    6150.33  339099  357147
    6152.68  340179  360709
    6155.05  341441  364458
    6157.43  342595  368102
    6159.83  344657  372647
    6162.26  345634  376118
    6164.7  347468  380485
    6167.16  348212  383769
    6169.64  349603  387974
    6172.14  351781  393396
    6174.66  353087  398146
    6177.2  354240  402688
    6179.76  355932  407378
    6182.33  357430  411239
    6184.93  358818  414735
    6187.55  360363  418245
    6190.18  361839  421728
    6192.84  362975  424885
    6195.51  364855  429236
    6198.2  366435  433295
    6200.92  367931  437511
    6203.65  369279  441766
    6206.4  371387  447160
    6209.17  372770  451850
    6211.96  374562  457064
    6214.77  376117  462310
    6217.6  377284  467322
    6220.45  379493  473671
    6223.31  380796  479271
    6226.2  382199  485029
    6229.1  384210  491617
    6232.03  386010  497964
    6234.97  385590  501495
    6237.94  386734  507006
    6240.92  390516  516148
    6243.92  384523  512033
    6246.94  393698  528589
    6249.98  395802  535824
    6253.04  397253  542315
    6256.12  398944  549086
    6259.22  400577  555666
    6262.34  402610  562602
    6265.48  404365  569166
    6268.63  406246  575815
    6271.81  407782  581785
    6275.01  409472  587842
    6278.22  411249  593998
    6281.45  413305  600717
    6284.71  415077  607526
    6287.98  416809  614391
    6291.27  418597  621572
    6294.58  420263  628746
    6297.91  422322  636553
    6301.26  423791  643483
    6304.63  425906  651593
    6308.02  427709  659476
    6311.43  429599  667741
    6314.85  431400  676105
    6318.3  433523  685228
    6321.77  435288  693673
    6325.25  437766  703539
    6328.76  439581  712446
    6332.28  441203  721199
    6335.82  443054  730332
    6339.38  444194  738297
    6342.97  446238  747680
    6346.56  448323  757268
    6350.19  449881  766188
    6353.82  452305  776752
    6357.48  454232  786590
    6361.16  456429  797312
    6364.86  458461  807863
    6368.57  460275  817879
    6372.31  462839  829536
    6376.07  463968  838480
    6379.84  466313  849566
    6383.63  468346  860202
    6387.45  469994  870166
    6391.28  471697  880263
    6395.13  474520  892469
    6399  476383  903124
    6402.89  477973  913497
    6406.8  480249  925149
    6410.73  481700  935662
    6414.68  483254  946515
    6418.65  485967  959889
    6422.63  488495  973152
    6426.64  490266  985258
    6430.67  491982  997460
    6434.71  493461  1.00955e+06
    6438.77  495749  1.02338e+06
    6442.86  497338  1.03583e+06
    6446.96  499968  1.05069e+06
    6451.08  501926  1.06437e+06
    6455.22  503567  1.07749e+06
    6459.38  505669  1.09195e+06
    6463.56  508423  1.10772e+06
    6467.76  509962  1.12107e+06
    6471.98  511546  1.13467e+06
    6476.22  514425  1.1513e+06
    6480.48  516317  1.16592e+06
    6484.75  518336  1.18087e+06
    6489.05  519791  1.19456e+06
    6493.36  522056  1.21028e+06
    6497.7  524422  1.2264e+06
    6502.05  526340  1.24168e+06
    6506.42  528614  1.258e+06
    6510.82  531023  1.27483e+06
    6515.23  532626  1.29006e+06
    6519.66  534584  1.30629e+06
    6524.11  536350  1.32222e+06
    6528.58  538539  1.3394e+06
    6533.07  541132  1.35799e+06
    6537.58  543163  1.37533e+06
    6542.1  544567  1.39134e+06
    6546.65  546640  1.40923e+06
    6551.21  548864  1.42803e+06
    6555.8  550381  1.44517e+06
    6560.41  552668  1.4646e+06
    6565.03  554613  1.48343e+06
    6569.67  556847  1.50334e+06
    6574.33  558585  1.52183e+06
    6579.02  561349  1.54377e+06
    6583.72  562987  1.5626e+06
    6588.44  564815  1.58206e+06
    6593.18  566521  1.60156e+06
    6597.94  568825  1.62297e+06
    6602.72  571056  1.6445e+06
    6607.52  572684  1.66473e+06
    6612.33  575348  1.68784e+06
    6617.17  577689  1.71051e+06
    6622.02  579428  1.73154e+06
    6626.9  581065  1.75247e+06
    6631.79  583825  1.77732e+06
    6636.71  585378  1.79834e+06
    6641.64  586983  1.81976e+06
    6646.59  589780  1.84554e+06
    6651.56  590877  1.86562e+06
    6656.55  592937  1.88935e+06
    6661.56  594123  1.91059e+06
    6666.59  596491  1.93571e+06
    6671.64  598535  1.96017e+06
    6676.71  599958  1.98293e+06
    6681.8  602042  2.00816e+06
    6686.9  603398  2.03137e+06
    6692.03  605722  2.05828e+06
    6697.18  606147  2.07885e+06
    6702.34  606705  2.10009e+06
    6707.52  604742  2.11235e+06
    6712.73  590065  2.07934e+06
    6717.95  609529  2.17651e+06
    6723.19  625120  2.24357e+06
    6728.45  624905  2.26649e+06
    6733.73  624797  2.28762e+06
    6739.03  615730  2.27541e+06
    6744.35  630484  2.35244e+06
    6749.69  624933  2.35441e+06
    6755.04  639818  2.43298e+06
    6760.42  634271  2.43514e+06
    6765.82  631232  2.44322e+06
    6771.24  639448  2.50218e+06
    6776.67  638080  2.52067e+06
    6782.12  630191  2.51347e+06
    6787.6  618238  2.4886e+06
    6793.09  654575  2.65458e+06
    6798.6  658487  2.70134e+06
    6804.13  656857  2.71995e+06
    6809.68  656992  2.74621e+06
    6815.25  657892  2.77586e+06
    6820.84  659531  2.80932e+06
    6826.45  661526  2.84473e+06
    6832.08  662228  2.87488e+06
    6837.73  664749  2.91349e+06
    6843.39  666424  2.94838e+06
    6849.08  667854  2.98295e+06
    6854.78  669304  3.01799e+06
    6860.51  671080  3.05514e+06
    6866.25  672589  3.091e+06