File: data/Cr/cr2s3_100K_002.xdi
# XDI/1.0
# Column.1: energy eV
# Column.2: i0
# Column.3: itrans
# Column.4: irefer
# Beamline.name: SSRL 2-3
# Beamline.notes: vert slits = 0.6mm
# Detector.I0: N2 15cm
# Detector.I1: N2 30cm
# Detector.I2: N2 15cm
# Element.edge: K
# Element.symbol: Cr
# Mono.d_spacing: 3.13550
# Mono.name: Si(111)
# Mono.notes: unfocused, detuned 75%, clockwise at E=5990eV
# Sample.formula: Cr2S3
# Sample.name: Cr2S3
# Sample.prep: powder on tape (4 layers)
# Sample.reference: Cr foil
# Sample.temperature: 100K
# Scan.start_time: 1997-04-18 17:59:32
# ///
#    Note: mono d_spacing is nominal!
#     exafs to K16
#     396  E XMU XMUR I0
#-------------
#   energy   i0   itrans  irefer
    5759.99  221269  9149.7  1169.3
    5769.98  221149  9328.7  1198.3
    5780.01  221035  9519.7  1231.3
    5790  220441  9684.7  1262.3
    5799.97  220550  9892.7  1295.3
    5810.03  220273  10082.7  1330.3
    5820  220021  10267.7  1362.3
    5830  219572  10457.7  1397.3
    5839.97  219713  10677.7  1434.3
    5849.98  219346  10870.7  1469.3
    5860.02  219097  11077.7  1507.3
    5870.02  218861  11282.7  1544.3
    5879.99  218500  11482.7  1580.3
    5890  217850  11668.7  1615.3
    5899.97  217463  11871.7  1654.3
    5909.98  217538  12100.7  1696.3
    5920.02  217117  12309.7  1735.3
    5930.03  216663  12513.7  1776.3
    5939.99  216488  12735.7  1815.3
    5950  216393  12956.7  1856.3
    5959.97  216027  13164.7  1897.3
    5969.97  215522  13350.7  1932.3
    5970.49  215488  13361.7  1935.3
    5971.01  215099  13349.7  1932.3
    5971.53  214143  13300.7  1928.3
    5971.97  212825  13235.7  1917.3
    5972.49  211674  13170.7  1907.3
    5973.01  212468  13235.7  1916.3
    5973.53  214283  13362.7  1936.3
    5973.98  215183  13423.7  1944.3
    5974.5  215666  13464.7  1949.3
    5975.02  215543  13462.7  1949.3
    5975.46  215345  13461.7  1949.3
    5975.98  215472  13482.7  1953.3
    5976.51  215586  13496.7  1957.3
    5977.03  215624  13508.7  1959.3
    5977.47  215457  13503.7  1960.3
    5977.99  215474  13521.7  1962.3
    5978.52  215713  13548.7  1967.3
    5979.04  215768  13555.7  1968.3
    5979.48  215614  13557.7  1968.3
    5980.01  215311  13551.7  1967.3
    5980.53  215522  13574.7  1971.3
    5980.97  215754  13592.7  1974.3
    5981.49  215530  13589.7  1972.3
    5982.02  215379  13584.7  1972.3
    5982.46  215562  13610.7  1974.3
    5982.99  215634  13621.7  1977.3
    5983.51  215753  13634.7  1980.3
    5984.03  215714  13640.7  1978.3
    5984.48  215694  13644.7  1980.3
    5985  215568  13646.7  1977.3
    5985.52  214754  13600.7  1970.3
    5985.97  212075  13437.7  1945.3
    5986.49  204481  12955.7  1873.3
    5987.02  191072  12108.7  1750.3
    5987.46  186146  11797.7  1704.3
    5987.99  195418  12393.7  1786.3
    5988.51  203778  12921.7  1860.3
    5989.03  208148  13186.7  1887.3
    5989.48  210537  13317.7  1891.3
    5990  212040  13366.7  1864.3
    5990.53  212778  13326.7  1808.3
    5990.98  212714  13204.7  1745.3
    5991.5  213236  13073.7  1685.3
    5992.02  213320  12921.7  1636.3
    5992.47  213461  12829.7  1600.3
    5992.99  213619  12754.7  1566.3
    5993.52  213660  12735.7  1542.3
    5993.97  213631  12744.7  1527.3
    5994.49  213855  12765.7  1514.3
    5995.02  213647  12727.7  1497.3
    5995.47  213587  12648.7  1483.3
    5995.99  213807  12465.7  1457.3
    5996.51  213619  12028.7  1406.3
    5996.96  213815  11470.7  1341.3
    5997.49  213602  10604.7  1240.3
    5998.01  213803  9739.7  1133.3
    5998.54  213745  9044.7  1039.3
    5998.99  213526  8572.7   971.3
    5999.51  213512  8134.7   903.301
    6000.04  213160  7818.7   849.3
    6000.49  213105  7698.7   823.3
    6001.01  212099  7682.7   802.3
    6001.46  210565  7733.7   795.3
    6001.99  209842  7902.7   800.3
    6002.51  210947  8179.7   814.3
    6002.96  212579  8423.7   829.3
    6003.49  213437  8619.7   836.301
    6004.02  213417  8704.7   836.3
    6004.47  213394  8693.7   828.3
    6004.99  213298  8603.7   811.3
    6005.52  213570  8463.7   791.3
    6005.97  213380  8320.7   770.3
    6006.5  213259  8166.7   750.3
    6007.02  213420  8049.7   732.3
    6007.47  213184  7949.7   716.301
    6008  213402  7864.7   702.3
    6008.53  213210  7770.7   687.3
    6008.98  213321  7718.7   676.3
    6009.5  213292  7655.7   663.3
    6010.03  213194  7586.7   650.3
    6010.94  213493  7480.46   635.064
    6011.84  213245  7355.73   628.358
    6012.82  213265  7278.51   637.181
    6013.8  213439  7293.81   657.534
    6014.78  213526  7355.62   675.415
    6015.76  213543  7427.94   688.826
    6016.81  213787  7487.78   693.765
    6017.8  213997  7500.13   689.234
    6018.93  214106  7483   679.233
    6019.99  213848  7469.38   669.76
    6021.12  214072  7489.28   669.818
    6022.18  214219  7515.68   672.402
    6023.39  214606  7561.6   682.518
    6024.52  214417  7611.03   689.162
    6025.73  214918  7714.98   700.335
    6026.87  215010  7824.44   706.037
    6028.16  215468  7980.41   714.27
    6029.37  215532  8084.9   716.031
    6030.58  215830  8186.91   722.321
    6031.87  216200  8314.42   729.141
    6033.16  216458  8485.45   741.49
    6034.53  216960  8690.99   759.367
    6035.82  217282  8862.05   775.774
    6037.19  217542  8981.62   783.711
    6038.56  217751  9043.7   786.176
    6040  218145  9067.29   785.171
    6041.37  218739  9071.41   783.695
    6042.82  219167  9047.03   782.748
    6044.26  219505  9021.17   782.331
    6045.71  219938  9016.82   787.442
    6047.24  220570  9018.99   790.083
    6048.76  221343  8994.67   792.252
    6050.29  221808  8938.86   791.952
    6051.82  222554  8894.56   797.181
    6053.42  222890  8862.78   804.937
    6054.95  223612  8856.52   812.225
    6056.56  224168  8839.76   820.04
    6058.24  224901  8815.52   825.386
    6059.85  225493  8778.79   828.26
    6061.53  225778  8738.58   827.664
    6063.22  226172  8731.88   826.597
    6064.91  226674  8743.7   826.059
    6066.68  227346  8783.02   823.05
    6068.36  228327  8854.87   821.571
    6070.13  229142  8934.22   818.621
    6071.9  230001  8984.09   813.199
    6073.75  230614  9009.48   810.307
    6075.52  231414  9084.37   821.945
    6077.37  232149  9243.78   844.111
    6079.22  233122  9463.7   878.807
    6081.15  234044  9720.14   915.031
    6083  234888  9944.09   949.786
    6084.93  235799  10158.5   982.068
    6086.87  236719  10340.5  1004.88
    6088.8  237423  10498  1015.22
    6090.81  238491  10655  1012.09
    6092.83  239277  10763.5  1003.49
    6094.84  240235  10853.6   988.424
    6096.86  241161  10911.1   972.882
    6098.88  242207  10960.2   961.87
    6100.98  243196  11004.8   957.387
    6103.07  244241  11046.8   964.434
    6105.18  245455  11098.4   984.008
    6107.28  246489  11143.6  1009.11
    6109.46  247676  11156.2  1036.75
    6111.64  248703  11120.3  1054.91
    6113.83  250203  11095  1070.6
    6116.01  251153  11066.1  1078.82
    6118.28  252373  11072.8  1084.57
    6120.47  253552  11105  1085.85
    6122.74  254762  11174.7  1086.66
    6125.01  256106  11289  1096
    6127.36  257175  11427.7  1113.87
    6129.64  258510  11592.9  1137.26
    6131.99  259805  11779.7  1165.19
    6134.35  260990  11942  1187.65
    6136.79  262458  12090.8  1206.63
    6139.15  263691  12234.1  1219.14
    6141.59  265248  12412.9  1234.18
    6144.04  266417  12588.2  1252.76
    6146.48  267868  12763.1  1264.86
    6148.93  269335  12932.4  1272.49
    6151.46  270684  13085.3  1281.65
    6153.99  272058  13222.7  1292.34
    6156.53  273532  13372.6  1304.55
    6159.06  274962  13515  1309.3
    6161.6  276518  13652.9  1312.58
    6164.22  278033  13802.4  1313.38
    6166.84  279400  13940.3  1320.72
    6169.47  280850  14076.8  1338.58
    6172.1  282607  14260.8  1372.97
    6174.81  283918  14474.3  1411.9
    6177.52  285454  14724.3  1455.35
    6180.23  286914  14944.8  1493.33
    6182.95  288691  15110.8  1523.84
    6185.67  290317  15209.4  1542.88
    6188.47  291930  15277.4  1554.45
    6191.27  293379  15331  1563.54
    6194.08  294961  15409.1  1576.17
    6196.89  296779  15513.7  1592.33
    6199.7  298432  15626.8  1611.01
    6202.6  300102  15754.4  1629.23
    6205.5  301696  15910.6  1645.97
    6208.4  303394  16075.2  1671.24
    6211.3  305158  16247.4  1702.04
    6214.21  307008  16430.1  1730.38
    6217.2  308639  16623.3  1755.23
    6220.2  310456  16833  1773.62
    6223.19  312373  17069.3  1794.55
    6226.19  313954  17298  1806.99
    6229.2  315972  17562.2  1826.97
    6232.28  317540  17789  1839.48
    6235.38  317610  17934.3  1840.51
    6238.47  321939  18318.1  1872.08
    6241.56  314527  18015.4  1835.17
    6244.75  323406  18636.2  1893.79
    6247.85  326093  18919.5  1930.95
    6251.04  328455  19200.4  1978.63
    6254.23  330241  19477.8  2033.84
    6257.43  332036  19754.6  2093.58
    6260.71  334054  20015  2143.85
    6263.91  335910  20252.9  2181.65
    6267.2  337813  20478.3  2208.97
    6270.49  339858  20695.3  2233.83
    6273.79  341646  20863.7  2255.22
    6277.17  343580  21015.7  2281.13
    6280.48  345602  21168.1  2304.58
    6283.86  347436  21317.1  2325.55
    6287.26  349496  21515.6  2349.05
    6290.65  351646  21767.6  2377.08
    6294.06  353391  22003.1  2409.65
    6297.54  355402  22287.2  2450.74
    6300.95  357671  22547.8  2492.36
    6304.45  359529  22787.8  2527.5
    6307.95  361470  23026.4  2558.18
    6311.54  363580  23301.5  2593.39
    6315.05  366053  23629.1  2630.13
    6318.56  368059  23925.2  2662.39
    6322.16  369901  24216.8  2688.19
    6325.77  371860  24520  2713.51
    6329.38  374103  24836.7  2750.37
    6333.07  376404  25182.8  2788.75
    6336.69  378360  25496.5  2825.66
    6340.4  380724  25824.7  2871.1
    6344.11  382936  26130.4  2915.07
    6347.83  385172  26415.7  2960.57
    6351.55  387156  26691.4  3002.6
    6355.27  389432  27001.7  3052.16
    6359.09  391731  27328.4  3103.24
    6362.82  393641  27651.7  3158.86
    6366.65  395539  28013.5  3220.01
    6370.47  398159  28431.8  3279.68
    6374.31  400280  28788.6  3332.88
    6378.23  402562  29159  3378.62
    6382.07  404801  29499.8  3423.88
    6386.01  406914  29822.2  3467.67
    6389.95  409053  30147.1  3516.99
    6393.89  411259  30459.5  3564.84
    6397.84  413437  30764.4  3609.22
    6401.88  415636  31088.8  3652.13
    6405.84  417936  31421.7  3697.57
    6409.89  420400  31774.2  3743.53
    6413.95  422543  32092.1  3790.03
    6418.01  424660  32431.6  3843.05
    6422.08  426935  32803.6  3898.61
    6426.15  429261  33180.1  3954.69
    6430.32  431581  33590.1  4005.31
    6434.4  433688  34003.6  4055.45
    6438.58  435974  34461.7  4114.12
    6442.76  438306  34906.2  4172.32
    6446.95  440803  35356.3  4236.05
    6451.23  443207  35800.9  4307.3
    6455.43  445412  36237  4381.09
    6459.72  447406  36686.6  4450.41
    6463.93  449791  37151.7  4525.26
    6468.24  452157  37606.4  4592.64
    6472.55  454351  38049.5  4657.54
    6476.95  456550  38500.2  4725.97
    6481.28  459272  39007.3  4801.93
    6485.61  461170  39428  4868.43
    6490.03  463486  39904.2  4938.45
    6494.46  465826  40359.9  5008
    6498.9  468279  40828.2  5074.08
    6503.34  470460  41255.9  5139.69
    6507.79  472614  41679.2  5206.83
    6512.34  474869  42124  5280.5
    6516.8  477397  42621.2  5357.69
    6521.35  479343  43075.1  5433.42
    6525.92  481663  43552.3  5511.67
    6530.49  484004  44049.2  5588.46
    6535.07  486322  44547.5  5665.77
    6539.65  488364  45033.4  5739.62
    6544.25  490267  45511.8  5814.98
    6548.94  492053  45977.6  5879.88
    6553.54  493880  46462  5955.32
    6558.24  496384  47032.9  6039.27
    6562.95  498359  47552.4  6125.77
    6567.67  500456  48091.3  6209.78
    6572.4  502551  48663.8  6300.33
    6577.22  505075  49277.7  6400.41
    6581.96  507182  49832.2  6499.01
    6586.79  509203  50382.2  6592.15
    6591.55  511278  50900.7  6675.81
    6596.4  513783  51479.7  6775.01
    6601.26  516143  52059.2  6861.72
    6606.12  518252  52630.3  6955.98
    6611.09  520306  53198.9  7046.76
    6615.97  523104  53853.9  7150.07
    6620.95  524947  54412.5  7240.91
    6625.85  527216  55019.6  7335.28
    6630.85  529547  55633.2  7437.18
    6635.85  531485  56207.3  7539.6
    6640.87  533320  56778  7634.57
    6645.89  535597  57393.2  7744.05
    6650.92  537525  57965.8  7842.06
    6655.96  540544  58675  7960.6
    6661.1  542764  59318.7  8069.68
    6666.15  544510  59887.9  8171.28
    6671.31  546270  60463.6  8269.4
    6676.47  548564  61101.8  8378.07
    6681.64  550492  61711.6  8485.26
    6686.82  552105  62292.8  8584.97
    6692.01  553305  62848.6  8678.22
    6697.3  553698  63300.9  8766.01
    6702.51  530963  61149.7  8484.31
    6707.72  575709  66713.1  9276.15
    6713.04  570097  66503.9  9265.51
    6718.37  569496  66882.2  9340.41
    6723.7  570691  67475.1  9447.83
    6729.05  571976  68124.4  9562.78
    6734.4  572282  68658.3  9656.26
    6739.77  579016  69956.8  9863.27
    6745.14  577544  70269.7  9940.82
    6750.61  563962  69075.1  9798.89
    6756  574222  70864  10077.5
    6761.5  572850  71211.4  10153.6
    6766.91  586971  73431.4  10504.3
    6772.42  574685  72437.9  10385.5
    6777.94  592519  75179.9  10809.2
    6783.48  594412  75936.4  10949.4
    6789.02  595199  76529.4  11062.2
    6794.57  595726  77125  11184.5
    6800.23  592533  77233  11233.3
    6805.8  560480  73533.6  10717.7
    6811.48  613490  81070.6  11849.6
    6817.07  609949  81166.2  11894
    6822.77  609936  81697.4  12000
    6828.47  610830  82392  12132.4
    6834.19  612214  83152.1  12273.4
    6839.92  613938  83948.7  12424
    6845.66  615452  84745.8  12571
    6851.4  616773  85506.6  12719.6
    6857.16  618646  86369.8  12880.8
    6863.03  620476  87251.4  13045.4
    6868.81  622306  88122.6  13212.6
    6874.7  624699  89091.4  13392.3
    6880.5  625532  89836.6  13537.5
    6886.41  626989  90687.4  13706.3
    6892.33  628537  91556.6  13871.6
    6898.26  629844  92368.4  14038.4
    6904.2  631454  93251.7  14208.8
    6910.15  632941  94143.5  14381.7
    6916.11  634609  95047.8  14564.1
    6922.09  635514  95836.6  14722
    6928.18  637136  96770  14908.5
    6934.17  638612  97675.9  15087.5
    6940.28  640486  98644.3  15281.1
    6946.3  642232  99592.1  15469.1
    6952.43  643754  100529  15652.7
    6958.57  645056  101415  15831.8
    6964.62  646678  102348  16014.5
    6970.78  647994  103267  16207.7
    6976.96  649214  104192  16390.4
    6983.15  650745  105161  16584.6
    6989.35  652348  106131  16782.4
    6995.66  653390  107037  16975.7
    7001.88  654995  108023  17179.5
    7008.12  655549  108834  17350.9
    7014.47  657472  109890  17561.7
    7020.72  658994  110895  17759.1
    7027.1  659738  111767  17947.1
    7033.38  660742  112673  18135.6
    7039.77  661836  113614  18333.6
    7046.18  663485  114680  18554.1
    7052.6  664548  115648  18756.2
    7059.04  665550  116609  18961.7
    7065.48  667107  117656  19182.8
    7071.94  668221  118660  19390.5
    7078.41  669341  119669  19611.7
    7084.9  669514  120483  19802.4
    7091.39  670097  121418  20004.6
    7097.9  670879  122374  20212.4
    7104.53  671984  123383  20440.7
    7111.06  672815  124356  20647.5