File: data/Cr/cr2s3_15K_002.xdi
# XDI/1.0
# Column.1: energy eV
# Column.2: i0
# Column.3: itrans
# Column.4: irefer
# Beamline.name: SSRL 2-3
# Beamline.notes: vert slits = 0.6mm
# Detector.I0: N2 15cm
# Detector.I1: N2 30cm
# Detector.I2: N2 15cm
# Element.edge: K
# Element.symbol: Cr
# Mono.d_spacing: 3.13550
# Mono.name: Si(111)
# Mono.notes: unfocused, detuned 75%, clockwise at E=5990eV
# Sample.formula: Cr2S3
# Sample.name: Cr2S3
# Sample.prep: powder on tape (4 layers)
# Sample.reference: Cr foil
# Sample.temperature: 15K
# Scan.start_time: 1997-04-18 16:16:50
# ///
#    Note: mono d_spacing is nominal!
#     exafs to K16
#     396  E XMU XMUR I0
#-------------
#   energy   i0   itrans  irefer
    5759.99  228550  9104.7  1166.3
    5769.98  228420  9290.7  1197.3
    5780.01  228686  9495.7  1231.3
    5790  228169  9669.7  1262.3
    5799.97  228189  9863.7  1295.3
    5810.03  227978  10062.7  1328.3
    5820  227758  10254.7  1361.3
    5830  227491  10451.7  1398.3
    5839.97  227146  10649.7  1432.3
    5849.98  226859  10850.7  1469.3
    5860.02  226377  11037.7  1504.3
    5870.02  225881  11233.7  1539.3
    5879.99  225599  11439.7  1576.3
    5890  225334  11651.7  1615.3
    5899.97  225187  11862.7  1652.3
    5909.98  224779  12078.7  1694.3
    5920.02  224301  12286.7  1733.3
    5930.03  224044  12501.7  1774.3
    5939.99  223219  12685.7  1809.3
    5950  222439  12869.7  1845.3
    5959.97  222078  13078.7  1884.3
    5969.97  221696  13285.7  1922.3
    5970.49  220101  13203.7  1909.3
    5971.01  217056  13028.7  1886.3
    5971.53  216604  13013.7  1885.3
    5971.97  215564  12964.7  1876.3
    5972.49  214422  12901.7  1867.3
    5973.01  215127  12951.7  1875.3
    5973.53  217199  13086.7  1895.3
    5973.98  218297  13159.7  1907.3
    5974.5  218842  13207.7  1914.3
    5975.02  219329  13243.7  1920.3
    5975.46  219312  13253.7  1920.3
    5975.98  219374  13269.7  1924.3
    5976.51  219241  13270.7  1925.3
    5977.03  219412  13293.7  1927.3
    5977.47  219514  13309.7  1930.3
    5977.99  219421  13318.7  1931.3
    5978.52  219480  13325.7  1934.3
    5979.04  219549  13343.7  1937.3
    5979.48  219689  13362.7  1939.3
    5980.01  219885  13386.7  1941.3
    5980.53  219755  13383.7  1940.3
    5980.97  219711  13392.7  1943.3
    5981.49  219808  13404.7  1944.3
    5982.02  219759  13411.7  1946.3
    5982.46  219865  13425.7  1947.3
    5982.99  219733  13428.7  1948.3
    5983.51  219942  13447.7  1952.3
    5984.03  220117  13468.7  1953.3
    5984.48  219924  13463.7  1954.3
    5985  219617  13453.7  1950.3
    5985.52  218996  13415.7  1945.3
    5985.97  216687  13281.7  1924.3
    5986.49  210280  12892.7  1867.3
    5987.02  197557  12115.7  1755.3
    5987.46  189836  11641.7  1685.3
    5987.99  196881  12075.7  1745.3
    5988.51  206303  12655.7  1823.3
    5989.03  211446  12964.7  1860.3
    5989.48  214154  13113.7  1869.3
    5990  215780  13174.7  1847.3
    5990.53  216620  13143.7  1795.3
    5990.98  216692  13040.7  1732.3
    5991.5  217058  12910.7  1673.3
    5992.02  217422  12779.7  1623.3
    5992.47  217591  12675.7  1584.3
    5992.99  217229  12569.7  1548.3
    5993.52  217494  12550.7  1523.3
    5993.97  217655  12559.7  1507.3
    5994.49  217620  12569.7  1492.3
    5995.02  217511  12541.7  1477.3
    5995.47  217501  12485.7  1466.3
    5995.99  217591  12328.7  1442.3
    5996.51  217422  11945.7  1397.3
    5996.96  217319  11418.7  1335.3
    5997.49  217556  10617.7  1241.3
    5998.01  217731  9752.7  1136.3
    5998.54  217490  9009.7  1038.3
    5998.99  217513  8527.7   971.3
    5999.51  217454  8065.7   899.3
    6000.04  217410  7743.7   845.301
    6000.49  216825  7579.7   813.3
    6001.01  216024  7545.7   791.3
    6001.46  214588  7582.7   784.3
    6001.99  213566  7732.7   785.3
    6002.51  214748  8002.7   801.3
    6002.96  216279  8252.7   816.3
    6003.49  216986  8454.7   826.3
    6004.02  217062  8560.7   827.3
    6004.47  217227  8573.7   819.3
    6004.99  217093  8493.7   804.3
    6005.52  216910  8350.7   783.3
    6005.97  216851  8214.7   764.3
    6006.5  216874  8066.7   744.3
    6007.02  216899  7935.7   726.3
    6007.47  216842  7841.7   711.3
    6008  216709  7741.7   695.3
    6008.53  216799  7656.7   681.3
    6008.98  216953  7601.7   671.3
    6009.5  217172  7547.7   659.3
    6010.03  216950  7477.7   648.3
    6010.94  217216  7371.46   631.064
    6011.84  217170  7249.73   624.358
    6012.82  216983  7162.51   630.181
    6013.8  216734  7151.81   644.534
    6014.78  216845  7210.62   664.415
    6015.76  216677  7274.95   677.826
    6016.81  216811  7333.78   681.765
    6017.8  216494  7334.14   678.234
    6018.93  217012  7333   668.233
    6019.99  217523  7341.38   662.76
    6021.12  217977  7365.27   662.817
    6022.18  216276  7328.68   660.402
    6023.39  216043  7348.6   663.518
    6024.52  216439  7412.03   674.162
    6025.73  216735  7501.98   684.335
    6026.87  217420  7628.44   693.038
    6028.16  217348  7765.42   696.27
    6029.37  218254  7904.9   705.031
    6030.58  218786  8010.9   710.321
    6031.87  219718  8151.42   718.142
    6033.16  219901  8305.45   731.49
    6034.53  220869  8531.99   748.367
    6035.82  221790  8729.05   765.774
    6037.19  222719  8888.62   778.711
    6038.56  223087  8957.7   783.176
    6040  224049  9010.3   782.171
    6041.37  224676  9015.41   780.695
    6042.82  225374  8998.04   781.748
    6044.26  226253  8992.17   785.331
    6045.71  226817  8998.82   789.442
    6047.24  227682  9012.99   793.083
    6048.76  228386  8988.66   795.252
    6050.29  229140  8941.85   795.952
    6051.82  229945  8895.56   800.181
    6053.42  230650  8877.78   806.938
    6054.95  231262  8866.51   813.225
    6056.56  231737  8847.76   822.042
    6058.24  232351  8816.52   826.386
    6059.85  232908  8771.79   827.26
    6061.53  233205  8735.58   826.665
    6063.22  233754  8729.88   828.597
    6064.91  234093  8733.7   826.059
    6066.68  234980  8779.02   823.049
    6068.36  235852  8847.87   821.57
    6070.13  236758  8932.22   820.621
    6071.9  237789  8985.09   814.199
    6073.75  238574  9009.48   812.307
    6075.52  239443  9076.37   822.945
    6077.37  240234  9225.78   845.111
    6079.22  241060  9439.71   876.807
    6081.15  242144  9703.14   917.031
    6083  243089  9935.09   952.785
    6084.93  243873  10142.6   986.068
    6086.87  244623  10329.5  1008.88
    6088.8  245742  10509  1021.22
    6090.81  246463  10654  1019.09
    6092.83  247613  10781.5  1009.49
    6094.84  248723  10880.6   994.423
    6096.86  249581  10939.1   980.882
    6098.88  250542  10982.2   969.871
    6100.98  251551  11030.8   962.387
    6103.07  252696  11074.8   969.432
    6105.18  254029  11129.4   988.008
    6107.28  255263  11178.6  1014.11
    6109.46  256128  11178.2  1039.75
    6111.64  257545  11156.3  1060.91
    6113.83  258383  11097  1071.6
    6116.01  259513  11055.1  1079.82
    6118.28  260782  11059.8  1083.57
    6120.47  262010  11087  1083.85
    6122.74  263182  11139.7  1087.66
    6125.01  264439  11256  1096
    6127.36  265905  11415.7  1115.87
    6129.64  267179  11588.9  1139.26
    6131.99  268452  11782.7  1166.19
    6134.35  269765  11953  1191.65
    6136.79  270877  12095.8  1208.63
    6139.15  272353  12242.1  1222.14
    6141.59  273776  12409.9  1236.19
    6144.04  275029  12578.2  1252.76
    6146.48  276429  12757.1  1266.86
    6148.93  277869  12922.4  1275.49
    6151.46  279390  13075.3  1283.65
    6153.99  280498  13200.7  1291.34
    6156.53  281915  13341.6  1304.56
    6159.06  283542  13487  1312.3
    6161.6  284934  13614.9  1314.58
    6164.22  286419  13763.4  1311.38
    6166.84  288008  13905.3  1319.72
    6169.47  289687  14039.8  1336.58
    6172.1  291397  14213.8  1366.97
    6174.81  292796  14439.3  1407.9
    6177.52  294540  14715.3  1458.35
    6180.23  296071  14947.8  1496.33
    6182.95  297374  15101.8  1527.84
    6185.67  298821  15186.4  1544.88
    6188.47  300664  15261.4  1557.45
    6191.27  302188  15310  1565.54
    6194.08  303921  15381.1  1580.17
    6196.89  305632  15471.7  1593.33
    6199.7  307288  15582.8  1609.01
    6202.6  309035  15718.4  1631.23
    6205.5  310942  15885.6  1652.97
    6208.4  312653  16055.3  1679.24
    6211.3  314350  16217.4  1709.04
    6214.21  316127  16387.1  1734.38
    6217.2  317957  16590.3  1763.24
    6220.2  319862  16798  1780.62
    6223.19  321429  17007.2  1794.54
    6226.19  323191  17247  1812.99
    6229.2  325012  17490.2  1826.97
    6232.28  326715  17730  1841.48
    6235.38  327150  17901.3  1846.51
    6238.47  331692  18290.1  1875.08
    6241.56  324092  17990.4  1837.17
    6244.75  333421  18626.2  1900.79
    6247.85  335912  18885.5  1932.95
    6251.04  338194  19157.4  1975.63
    6254.23  340165  19440.7  2032.84
    6257.43  342052  19732.6  2093.58
    6260.71  344188  20018  2146.85
    6263.91  345918  20250.9  2182.65
    6267.2  348143  20496.3  2213.97
    6270.49  349810  20684.3  2238.83
    6273.79  351741  20852.7  2266.22
    6277.17  353894  21011.7  2289.13
    6280.48  356157  21170.1  2314.58
    6283.86  358175  21298.1  2333.55
    6287.26  360309  21489.6  2356.05
    6290.65  362246  21720.6  2386.09
    6294.06  364255  21983.2  2422.65
    6297.54  366421  22271.2  2464.74
    6300.95  368994  22567.7  2509.36
    6304.45  370975  22815.8  2544.51
    6307.95  373231  23062.4  2578.19
    6311.54  375220  23330.5  2610.39
    6315.05  377471  23634.1  2647.13
    6318.56  379939  23963.2  2678.39
    6322.16  382200  24284.8  2708.19
    6325.77  384175  24582  2737.51
    6329.38  386530  24919.7  2773.37
    6333.07  388820  25258.8  2811.75
    6336.69  390818  25564.5  2847.66
    6340.4  392920  25880.7  2891.1
    6344.11  395233  26194.4  2934.07
    6347.83  397457  26473.6  2976.57
    6351.55  399426  26718.4  3019.6
    6355.27  401277  26978.7  3057.16
    6359.09  403317  27280.4  3107.25
    6362.82  406040  27672.7  3166.86
    6366.65  408627  28087.5  3237.01
    6370.47  410641  28467.8  3295.68
    6374.31  412954  28847.7  3351.88
    6378.23  415135  29216  3398.62
    6382.07  417454  29564.8  3444.88
    6386.01  419640  29890.2  3490.67
    6389.95  421890  30215.1  3533.99
    6393.89  423796  30498.5  3577.84
    6397.84  426509  30854.4  3627.22
    6401.88  428743  31175.8  3672.13
    6405.84  431315  31522.7  3717.57
    6409.89  433495  31833.2  3758.53
    6413.95  435633  32151.1  3809.03
    6418.01  438306  32516.6  3868.05
    6422.08  440229  32855.6  3913.61
    6426.15  442565  33224.1  3968.69
    6430.32  444689  33604.1  4020.3
    6434.4  447049  34041.6  4072.44
    6438.58  449212  34486.7  4126.12
    6442.76  451605  34953.2  4185.32
    6446.95  453848  35366.3  4247.05
    6451.23  456366  35820.9  4318.3
    6455.43  458769  36276  4392.09
    6459.72  460960  36740.6  4465.41
    6463.93  463296  37212.7  4540.26
    6468.24  465423  37655.4  4612.64
    6472.55  467857  38105.5  4677.54
    6476.95  470226  38571.2  4747.97
    6481.28  472544  39047.3  4819.94
    6485.61  474989  39518  4895.43
    6490.03  477380  39992.3  4966.45
    6494.46  479424  40418  5031
    6498.9  481938  40892.2  5096.08
    6503.34  484161  41335.9  5159.69
    6507.79  486582  41758.2  5228.83
    6512.34  488755  42161  5296.49
    6516.8  491257  42646.3  5378.69
    6521.35  493554  43134.1  5457.42
    6525.92  495805  43614.4  5539.67
    6530.49  498062  44096.2  5615.46
    6535.07  500466  44596.5  5694.77
    6539.65  502607  45105.4  5769.61
    6544.25  504409  45570.8  5842.99
    6548.94  506518  46070.6  5914.89
    6553.54  508123  46520.1  5982.32
    6558.24  511063  47116  6070.28
    6562.95  513109  47637.4  6150.77
    6567.67  515456  48212.3  6244.78
    6572.4  517921  48827.8  6340.33
    6577.22  520172  49424.7  6430.4
    6581.96  522499  50002.2  6526.01
    6586.79  524656  50558.2  6623.15
    6591.55  526891  51090.7  6713.82
    6596.4  528952  51616.7  6803
    6601.26  531094  52139.3  6886.73
    6606.12  533517  52721.3  6980.98
    6611.09  535637  53326.8  7073.76
    6615.97  537637  53885.9  7168.07
    6620.95  539845  54486.5  7263.91
    6625.85  542216  55107.6  7368.28
    6630.85  544554  55724.2  7467.18
    6635.85  546760  56322.4  7569.6
    6640.87  548917  56923  7672.56
    6645.89  551174  57539.2  7780.05
    6650.92  552977  58097.8  7876.06
    6655.96  555296  58716  7981.6
    6661.1  557593  59377.7  8092.67
    6666.15  559902  60022.9  8201.28
    6671.31  561733  60607.6  8305.41
    6676.47  563932  61245.8  8411.07
    6681.64  565822  61840.6  8506.25
    6686.82  567508  62419.8  8597.98
    6692.01  568202  62901.7  8683.23
    6697.3  567851  63277.9  8756.01
    6702.51  545944  61277.7  8504.31
    6707.72  590263  66679  9272.14
    6713.04  584661  66504.8  9268.51
    6718.37  584708  66966.2  9357.4
    6723.7  585928  67558.1  9462.83
    6729.05  586672  68117.5  9563.79
    6734.4  586962  68659.3  9663.26
    6739.77  593306  69909.7  9872.28
    6745.14  592156  70280.7  9953.82
    6750.61  578091  69074.1  9813.89
    6756  583805  70302  10010.5
    6761.5  588100  71327.5  10180.6
    6766.91  602138  73495.4  10524.3
    6772.42  587708  72258.9  10376.5
    6777.94  607643  75222.9  10826.2
    6783.48  608743  75897.4  10950.4
    6789.02  609257  76466.4  11060.2
    6794.57  609252  76971  11162.5
    6800.23  606519  77142  11220.3
    6805.8  573837  73457.6  10718.7
    6811.48  627889  80964.7  11843.6
    6817.07  625048  81157.2  11897
    6822.77  624919  81706.4  12011.9
    6828.47  626462  82479.9  12156.4
    6834.19  627371  83167.1  12279.4
    6839.92  629339  83987.7  12441
    6845.66  630843  84796.9  12594
    6851.4  632112  85569.6  12740.6
    6857.16  634112  86468.8  12903.8
    6863.03  635484  87267.5  13058.4
    6868.81  637091  88124.6  13224.6
    6874.7  639062  89021.4  13399.3
    6880.5  641170  89947.6  13579.5
    6886.41  642661  90798.4  13740.3
    6892.33  644292  91669.7  13913.6
    6898.26  645802  92535.4  14078.4
    6904.2  647400  93426.7  14252.8
    6910.15  648512  94248.5  14416.7
    6916.11  650220  95164.8  14591.1
    6922.09  650156  95842.6  14728
    6928.18  651638  96740  14917.5
    6934.17  653021  97605.9  15098.5
    6940.28  654030  98454.2  15265.1
    6946.3  655355  99344.1  15451.1
    6952.43  656350  100164  15620.7
    6958.57  657707  101084  15802.8
    6964.62  659886  102120  16004.5
    6970.78  660786  102940  16178.7
    6976.96  662163  103888  16366.4
    6983.15  664094  104930  16577.6
    6989.35  665056  105800  16761.4
    6995.66  666157  106720  16954.7
    7001.88  667644  107673  17148.5
    7008.12  669184  108632  17338.8
    7014.47  670408  109596  17537.7
    7020.72  671362  110481  17714.1
    7027.1  672761  111457  17912.1
    7033.38  673972  112418  18114.6
    7039.77  675279  113395  18316.6
    7046.18  675637  114217  18495.1
    7052.6  677042  115228  18707.2
    7059.04  677789  116156  18913.7
    7065.48  678732  117101  19114.9
    7071.94  680228  118175  19345.5
    7078.41  681579  119215  19562.7
    7084.9  682077  120136  19759.4
    7091.39  683521  121191  19986.6
    7097.9  683472  122000  20177.4
    7104.53  684591  123043  20397.7
    7111.06  685057  123952  20605.5