File: data/Cr/cr2s3_15K_001.xdi
# XDI/1.0
# Column.1: energy eV
# Column.2: i0
# Column.3: itrans
# Column.4: irefer
# Beamline.name: SSRL 2-3
# Beamline.notes: vert slits = 0.6mm
# Detector.I0: N2 15cm
# Detector.I1: N2 30cm
# Detector.I2: N2 15cm
# Element.edge: K
# Element.symbol: Cr
# Mono.d_spacing: 3.13550
# Mono.name: Si(111)
# Mono.notes: unfocused, detuned 75%, clockwise at E=5990eV
# Sample.formula: Cr2S3
# Sample.name: Cr2S3
# Sample.prep: powder on tape (4 layers)
# Sample.reference: Cr foil
# Sample.temperature: 15K
# Scan.start_time: 1997-04-18 16:16:50
# ///
#    Note: mono d_spacing is nominal!
#     exafs to K16
#     396  E XMU XMUR I0
#-------------
#   energy   i0   itrans  irefer
    5759.99  234427  9345.7  1195.3
    5769.98  234284  9533.7  1230.3
    5780.01  234036  9719.7  1261.3
    5790  233862  9916.7  1293.3
    5799.97  233411  10094.7  1326.3
    5810.03  233178  10297.7  1362.3
    5820  233029  10497.7  1396.3
    5830  232564  10692.7  1430.3
    5839.97  232235  10889.7  1466.3
    5849.98  232040  11103.7  1504.3
    5860.02  231753  11309.7  1539.3
    5870.02  231492  11521.7  1579.3
    5879.99  231069  11725.7  1616.3
    5890  231080  11957.7  1659.3
    5899.97  230725  12171.7  1697.3
    5909.98  230367  12388.7  1735.3
    5920.02  230266  12617.7  1777.3
    5930.03  229711  12824.7  1817.3
    5939.99  229278  13037.7  1857.3
    5950  228958  13253.7  1898.3
    5959.97  228698  13471.7  1938.3
    5969.97  228079  13670.7  1977.3
    5970.49  227952  13675.7  1976.3
    5971.01  227742  13677.7  1978.3
    5971.53  226985  13645.7  1976.3
    5971.97  225919  13588.7  1965.3
    5972.49  224305  13500.7  1956.3
    5973.01  224614  13532.7  1961.3
    5973.53  226600  13659.7  1979.3
    5973.98  227984  13756.7  1992.3
    5974.5  228245  13784.7  1998.3
    5975.02  228295  13797.7  2000.3
    5975.46  228416  13809.7  2002.3
    5975.98  228520  13833.7  2005.3
    5976.51  228472  13835.7  2007.3
    5977.03  228445  13844.7  2008.3
    5977.47  228438  13855.7  2010.3
    5977.99  228570  13877.7  2012.3
    5978.52  228393  13880.7  2015.3
    5979.04  228290  13881.7  2014.3
    5979.48  228366  13900.7  2015.3
    5980.01  228452  13911.7  2019.3
    5980.53  228172  13905.7  2018.3
    5980.97  228320  13922.7  2022.3
    5981.49  228301  13929.7  2023.3
    5982.02  228367  13944.7  2024.3
    5982.46  228276  13949.7  2024.3
    5982.99  228461  13961.7  2026.3
    5983.51  228585  13979.7  2028.3
    5984.03  228469  13984.7  2030.3
    5984.48  228508  13990.7  2030.3
    5985  228539  13999.7  2031.3
    5985.52  227745  13960.7  2024.3
    5985.97  225404  13821.7  2003.3
    5986.49  218937  13428.7  1944.3
    5987.02  205470  12599.7  1823.3
    5987.46  196760  12076.7  1747.3
    5987.99  203901  12518.7  1808.3
    5988.51  213964  13125.7  1889.3
    5989.03  219499  13457.7  1929.3
    5989.48  222158  13606.7  1937.3
    5990  223849  13669.7  1917.3
    5990.53  224667  13639.7  1859.3
    5990.98  225073  13550.7  1801.3
    5991.5  225240  13401.7  1737.3
    5992.02  225436  13255.7  1685.3
    5992.47  225736  13155.7  1647.3
    5992.99  225750  13063.7  1612.3
    5993.52  225746  13026.7  1585.3
    5993.97  225874  13039.7  1568.3
    5994.49  225976  13052.7  1554.3
    5995.02  225941  13035.7  1537.3
    5995.47  225864  12976.7  1523.3
    5995.99  225822  12803.7  1500.3
    5996.51  225934  12437.7  1455.3
    5996.96  225765  11898.7  1393.3
    5997.49  225790  11052.7  1292.3
    5998.01  225851  10146.7  1182.3
    5998.54  225697  9372.7  1083.3
    5998.99  225625  8864.7  1009.3
    5999.51  225688  8390.7   937.3
    6000.04  225541  8040.7   881.3
    6000.49  225163  7874.7   848.3
    6001.01  224301  7826.7   823.3
    6001.46  222876  7866.7   814.3
    6001.99  221722  8017.7   814.3
    6002.51  222538  8280.7   829.3
    6002.96  224128  8537.7   846.3
    6003.49  225337  8767.7   858.3
    6004.02  225440  8884.7   858.301
    6004.47  225486  8904.7   853.3
    6004.99  225561  8837.7   839.3
    6005.52  225496  8689.7   817.3
    6005.97  225409  8544.7   797.301
    6006.5  225212  8381.7   776.3
    6007.02  225482  8256.7   757.3
    6007.47  226173  8185.7   745.3
    6008  224583  8027.7   724.3
    6008.53  224830  7948.7   710.3
    6008.98  224844  7883.7   697.3
    6009.5  224764  7813.7   685.3
    6010.03  224878  7752.7   673.3
    6010.94  224799  7632.46   656.064
    6011.84  224578  7503.72   645.358
    6012.82  224482  7411.51   652.181
    6013.8  224623  7410.81   669.534
    6014.78  224985  7477.62   687.415
    6015.76  225077  7552.94   702.826
    6016.81  225083  7617.78   709.765
    6017.8  225265  7630.13   707.234
    6018.93  225322  7616   696.233
    6019.99  225116  7599.38   687.76
    6021.12  225421  7619.27   683.817
    6022.18  225624  7644.68   686.402
    6023.39  226274  7694.6   696.518
    6024.52  226626  7755.03   706.162
    6025.73  226861  7851.98   715.335
    6026.87  226922  7962.44   722.038
    6028.16  227191  8118.41   727.269
    6029.37  227550  8244.9   733.031
    6030.58  227892  8345.91   740.321
    6031.87  228318  8472.42   748.141
    6033.16  228365  8630.45   760.49
    6034.53  228552  8826.99   777.367
    6035.82  229081  9016.05   792.774
    6037.19  229510  9157.62   804.711
    6038.56  230093  9237.7   808.176
    6040  230248  9253.3   806.171
    6041.37  230717  9260.41   804.695
    6042.82  231194  9233.03   803.748
    6044.26  231776  9218.17   807.331
    6045.71  232334  9217.82   812.442
    6047.24  232902  9219.99   815.083
    6048.76  233198  9176.67   814.252
    6050.29  233553  9112.85   814.952
    6051.82  234083  9062.56   819.181
    6053.42  234869  9037.78   825.938
    6054.95  235569  9031.51   833.224
    6056.56  236414  9028.76   842.041
    6058.24  236855  8992.52   846.386
    6059.85  237330  8944.79   846.26
    6061.53  237847  8906.58   846.664
    6063.22  238225  8896.88   847.597
    6064.91  239396  8935.7   847.059
    6066.68  240185  8976.02   844.049
    6068.36  240851  9033.86   843.57
    6070.13  241503  9108.22   838.621
    6071.9  241757  9138.09   832.199
    6073.75  242549  9161.48   829.307
    6075.52  243208  9220.37   838.945
    6077.37  244235  9381.77   864.111
    6079.22  245337  9607.7   896.806
    6081.15  245811  9850.14   934.031
    6083  247418  10119.1   972.786
    6084.93  247737  10305.6  1003.07
    6086.87  248684  10499.5  1028.88
    6088.8  249503  10670  1040.22
    6090.81  249731  10797  1037.09
    6092.83  251216  10943.5  1028.49
    6094.84  251477  10999.6  1008.42
    6096.86  252674  11075.1   993.882
    6098.88  253116  11099.2   981.87
    6100.98  254415  11151.8   976.388
    6103.07  255985  11218.8   984.433
    6105.18  256559  11245.4  1002.01
    6107.28  257394  11281.6  1026.11
    6109.46  258103  11273.2  1047.75
    6111.64  259153  11233.3  1068.91
    6113.83  259911  11165  1082.6
    6116.01  261201  11133.1  1088.82
    6118.28  262636  11142.8  1095.57
    6120.47  263903  11173  1095.85
    6122.74  265406  11241.7  1100.66
    6125.01  266513  11344.9  1109
    6127.36  268046  11510.7  1127.87
    6129.64  269209  11677.9  1152.26
    6131.99  270726  11879.7  1182.19
    6134.35  271776  12046  1203.65
    6136.79  273718  12222.8  1224.63
    6139.15  275536  12386.1  1239.14
    6141.59  276878  12548.9  1254.19
    6144.04  278333  12733.2  1271.76
    6146.48  280082  12929.1  1284.86
    6148.93  281479  13089.4  1295.49
    6151.46  282995  13245.3  1303.65
    6153.99  284797  13404.7  1313.34
    6156.53  286775  13574.6  1331.55
    6159.06  288200  13714  1338.3
    6161.6  289125  13818.9  1334.58
    6164.22  291516  14010.4  1339.38
    6166.84  292510  14123.3  1342.72
    6169.47  294599  14288.8  1362.58
    6172.1  295798  14437.8  1393.97
    6174.81  297662  14684.3  1435.9
    6177.52  299305  14955.3  1483.35
    6180.23  300132  15159.8  1518.33
    6182.95  301754  15329.8  1549.84
    6185.67  302595  15384.4  1565.88
    6188.47  304482  15455.4  1579.45
    6191.27  304982  15454  1582.54
    6194.08  307088  15546.1  1595.17
    6196.89  310033  15698.7  1616.33
    6199.7  312945  15872.8  1640.01
    6202.6  314257  15983.5  1659.23
    6205.5  315522  16119.6  1676.97
    6208.4  314469  16146.3  1689.24
    6211.3  315857  16300.4  1716.04
    6214.21  318128  16500.1  1746.38
    6217.2  319489  16676.3  1769.24
    6220.2  320493  16839  1782.62
    6223.19  322775  17085.2  1802.54
    6226.19  324056  17296  1817.99
    6229.2  326013  17555.2  1833.97
    6232.28  325850  17695  1833.48
    6235.38  326922  17894.3  1840.51
    6238.47  329825  18193.1  1861.08
    6241.56  320020  17771.4  1810.17
    6244.75  328649  18357.2  1869.79
    6247.85  332195  18667.5  1906.95
    6251.04  332027  18806.4  1938.63
    6254.23  333413  19063.7  1992.84
    6257.43  334401  19292.6  2047.58
    6260.71  338132  19663  2108.85
    6263.91  340498  19927.9  2150.65
    6267.2  341799  20119.3  2177.97
    6270.49  342032  20228.3  2191.83
    6273.79  344433  20425.7  2219.22
    6277.17  347943  20657.7  2251.13
    6280.48  347929  20682.1  2259.58
    6283.86  348967  20761.1  2270.55
    6287.26  350204  20883.6  2288.05
    6290.65  352347  21128.6  2315.09
    6294.06  355126  21440.1  2355.65
    6297.54  357348  21725.2  2396.74
    6300.95  359598  22002.8  2442.36
    6304.45  362804  22315.8  2483.51
    6307.95  369249  22826.4  2548.18
    6311.54  373110  23202.5  2595.39
    6315.05  376149  23553.1  2635.13
    6318.56  378265  23874.2  2665.39
    6322.16  381017  24220.8  2697.19
    6325.77  384146  24585  2734.51
    6329.38  386786  24939.6  2771.36
    6333.07  389762  25324.8  2817.75
    6336.69  393264  25735.5  2864.66
    6340.4  396323  26110.7  2914.1
    6344.11  399705  26496.4  2965.07
    6347.83  403171  26865.7  3020.57
    6351.55  406109  27172.4  3068.6
    6355.27  408501  27476.7  3117.16
    6359.09  410708  27790.4  3168.24
    6362.82  412934  28149.7  3227.86
    6366.65  415147  28542.5  3289.01
    6370.47  417295  28937.8  3353.68
    6374.31  419653  29325.7  3411.88
    6378.23  422017  29707  3465.62
    6382.07  423931  30034.8  3503.88
    6386.01  426342  30378.2  3552.67
    6389.95  428648  30714.1  3600.99
    6393.89  431043  31041.5  3646.84
    6397.84  433373  31352.4  3691.22
    6401.88  435695  31681.8  3737.13
    6405.84  437644  31989.7  3778.57
    6409.89  439867  32322.2  3827.53
    6413.95  442132  32646.1  3874.03
    6418.01  444516  32989.6  3924.05
    6422.08  447287  33399.6  3985.61
    6426.15  449700  33782.1  4040.69
    6430.32  452162  34176.1  4094.3
    6434.4  453924  34573.6  4143.45
    6438.58  456712  35087.7  4202.12
    6442.76  458826  35527.2  4261.32
    6446.95  461507  35983.3  4327.05
    6451.23  464149  36443.9  4399.31
    6455.43  466404  36895  4471.1
    6459.72  468530  37345.6  4543.41
    6463.93  471101  37848.7  4619.26
    6468.24  473130  38286.4  4684.63
    6472.55  475161  38706.5  4748.54
    6476.95  477487  39181.2  4816.97
    6481.28  480164  39683.3  4893.93
    6485.61  482671  40157  4970.43
    6490.03  485238  40654.3  5047.45
    6494.46  487437  41093.9  5112
    6498.9  490251  41594.2  5184.08
    6503.34  492161  41995.9  5240.69
    6507.79  494319  42409.2  5307.83
    6512.34  496131  42802  5377.5
    6516.8  498379  43262.3  5453.69
    6521.35  499582  43649.1  5521.42
    6525.92  500025  43983.4  5581.68
    6530.49  500502  44294.2  5637.46
    6535.07  501198  44656.5  5695.77
    6539.65  503094  45120.4  5768.62
    6544.25  504147  45540.8  5832.98
    6548.94  506207  46023.7  5910.89
    6553.54  507946  46492  5975.32
    6558.24  510071  47017.9  6055.28
    6562.95  511898  47537.3  6136.76
    6567.67  513395  48010.3  6212.78
    6572.4  515276  48562.8  6301.33
    6577.22  517310  49141.7  6395.41
    6581.96  520393  49796.2  6500.02
    6586.79  522910  50386.2  6600.15
    6591.55  525233  50926.7  6689.81
    6596.4  526532  51367.7  6770
    6601.26  528932  51928.2  6861.73
    6606.12  531255  52508.3  6947.98
    6611.09  533421  53106.9  7050.76
    6615.97  536117  53722.9  7151.06
    6620.95  537586  54253.5  7241.91
    6625.85  539742  54848.6  7333.27
    6630.85  541319  55400.2  7423.18
    6635.85  542749  55919.4  7511.61
    6640.87  544785  56488  7613.56
    6645.89  546927  57105.2  7718.05
    6650.92  549328  57714.8  7827.06
    6655.96  551722  58369  7932.6
    6661.1  553686  58972.7  8040.68
    6666.15  556114  59616.9  8148.28
    6671.31  558087  60220.6  8248.41
    6676.47  560834  60908.8  8358.06
    6681.64  561932  61419.6  8456.26
    6686.82  563519  61978.9  8554.98
    6692.01  564474  62491.6  8648.23
    6697.3  564017  62852.9  8712
    6702.51  543031  60974.7  8473.31
    6707.72  586501  66266.1  9224.15
    6713.04  580246  65996.8  9213.51
    6718.37  580892  66520.2  9306.4
    6723.7  582180  67135  9410.83
    6729.05  582628  67683.4  9509.78
    6734.4  583520  68261.3  9610.26
    6739.77  589052  69416.7  9793.27
    6745.14  588865  69892.7  9896.82
    6750.61  574668  68665.1  9747.89
    6756  578462  69668  9921.48
    6761.5  585023  70953.4  10129.6
    6766.91  598315  73036.4  10450.3
    6772.42  584215  71833.9  10305.5
    6777.94  604744  74874.9  10767.2
    6783.48  607883  75790.4  10937.4
    6789.02  609145  76450.5  11064.2
    6794.57  610085  77089.9  11192.5
    6800.23  607351  77260  11244.3
    6805.8  574494  73539.6  10733.7
    6811.48  630169  81270.6  11893.6
    6817.07  625445  81219.2  11921
    6822.77  619560  81024.3  11926.9
    6828.47  618578  81454  12015.4
    6834.19  619465  82109.1  12143.4
    6839.92  620428  82811.8  12277
    6845.66  622541  83695.8  12441
    6851.4  624021  84461.5  12582.6
    6857.16  625802  85322.8  12743.8
    6863.03  627610  86178.4  12899.4
    6868.81  629415  87058.7  13063.6
    6874.7  630836  87876.4  13225.3
    6880.5  632250  88701.6  13383.5
    6886.41  633865  89558.4  13544.3
    6892.33  636505  90560.6  13729.6
    6898.26  637516  91337.4  13890.4
    6904.2  639063  92220.7  14065.8
    6910.15  640448  93080.5  14229.7
    6916.11  642152  93980.9  14406.1
    6922.09  642648  94698.7  14559.1
    6928.18  643584  95526  14726.5
    6934.17  645471  96483.9  14915.5
    6940.28  645707  97198.2  15072.1
    6946.3  646380  97959.1  15228.1
    6952.43  647245  98777.6  15398.7
    6958.57  649566  99811.5  15601.8
    6964.62  651655  100829  15795.5
    6970.78  652807  101735  15972.7
    6976.96  654230  102658  16159.4
    6983.15  655845  103622  16347.6
    6989.35  656649  104454  16524.4
    6995.66  658366  105453  16723.7
    7001.88  660703  106548  16936.5
    7008.12  659585  107067  17067.9
    7014.47  659824  107843  17235.7
    7020.72  661322  108805  17435.1
    7027.1  661201  109548  17594.1
    7033.38  665118  110913  17860.6
    7039.77  671300  112679  18192.6
    7046.18  675719  114203  18486.1
    7052.6  679775  115653  18773.2
    7059.04  681713  116762  19004.7
    7065.48  683629  117896  19229.9
    7071.94  684781  118911  19445.5
    7078.41  685975  119943  19651.7
    7084.9  687010  120936  19876.4
    7091.39  688490  122029  20107.6
    7097.9  688781  122890  20300.4
    7104.53  689356  123864  20514.7
    7111.06  689525  124740  20712.5