File: data/Cr/cr2s3_15K_003.xdi
# XDI/1.0
# Column.1: energy eV
# Column.2: i0
# Column.3: itrans
# Column.4: irefer
# Beamline.name: SSRL 2-3
# Beamline.notes: vert slits = 0.6mm
# Detector.I0: N2 15cm
# Detector.I1: N2 30cm
# Detector.I2: N2 15cm
# Element.edge: K
# Element.symbol: Cr
# Mono.d_spacing: 3.13550
# Mono.name: Si(111)
# Mono.notes: unfocused, detuned 75%, clockwise at E=5990eV
# Sample.formula: Cr2S3
# Sample.name: Cr2S3
# Sample.prep: powder on tape (4 layers)
# Sample.reference: Cr foil
# Sample.temperature: 15K
# Scan.start_time: 1997-04-18 16:16:50
# ///
#    Note: mono d_spacing is nominal!
#     exafs to K16
#     396  E XMU XMUR I0
#-------------
#   energy   i0   itrans  irefer
    5759.99  227698  9071.7  1163.3
    5769.98  227312  9242.7  1193.3
    5780.01  227176  9431.7  1226.3
    5790  226927  9613.7  1257.3
    5799.97  226651  9799.7  1289.3
    5810.03  226409  9992.7  1324.3
    5820  226093  10183.7  1357.3
    5830  225851  10375.7  1390.3
    5839.97  225632  10576.7  1426.3
    5849.98  225481  10779.7  1462.3
    5860.02  225267  10988.7  1498.3
    5870.02  225128  11201.7  1535.3
    5879.99  224696  11400.7  1573.3
    5890  224357  11602.7  1611.3
    5899.97  224037  11811.7  1649.3
    5909.98  223445  12003.7  1685.3
    5920.02  223220  12224.7  1726.3
    5930.03  222800  12432.7  1763.3
    5939.99  222511  12645.7  1802.3
    5950  222211  12859.7  1845.3
    5959.97  222124  13078.7  1886.3
    5969.97  221536  13273.7  1923.3
    5970.49  221462  13281.7  1923.3
    5971.01  221191  13268.7  1924.3
    5971.53  220425  13239.7  1919.3
    5971.97  219227  13174.7  1910.3
    5972.49  217817  13107.7  1902.3
    5973.01  218194  13140.7  1904.3
    5973.53  220171  13264.7  1924.3
    5973.98  221251  13339.7  1935.3
    5974.5  221477  13366.7  1941.3
    5975.02  221789  13398.7  1944.3
    5975.46  221806  13405.7  1946.3
    5975.98  221772  13418.7  1948.3
    5976.51  221528  13409.7  1947.3
    5977.03  221636  13429.7  1950.3
    5977.47  221656  13437.7  1951.3
    5977.99  221693  13455.7  1954.3
    5978.52  221366  13446.7  1953.3
    5979.04  221360  13448.7  1954.3
    5979.48  221663  13480.7  1957.3
    5980.01  221664  13486.7  1960.3
    5980.53  221316  13481.7  1959.3
    5980.97  221522  13492.7  1960.3
    5981.49  221797  13523.7  1966.3
    5982.02  221901  13538.7  1967.3
    5982.46  222014  13552.7  1968.3
    5982.99  221840  13548.7  1969.3
    5983.51  221881  13564.7  1972.3
    5984.03  221978  13581.7  1974.3
    5984.48  221838  13581.7  1974.3
    5985  221632  13571.7  1973.3
    5985.52  220802  13526.7  1965.3
    5985.97  218561  13394.7  1945.3
    5986.49  211626  12973.7  1883.3
    5987.02  198235  12154.7  1764.3
    5987.46  190914  11708.7  1698.3
    5987.99  199068  12215.7  1767.3
    5988.51  208452  12783.7  1845.3
    5989.03  213339  13078.7  1876.3
    5989.48  215860  13209.7  1883.3
    5990  217468  13270.7  1861.3
    5990.53  218206  13232.7  1804.3
    5990.98  218450  13137.7  1745.3
    5991.5  218686  12995.7  1686.3
    5992.02  218778  12841.7  1632.3
    5992.47  218989  12749.7  1595.3
    5992.99  219154  12675.7  1565.3
    5993.52  219026  12629.7  1537.3
    5993.97  218955  12633.7  1521.3
    5994.49  218988  12639.7  1506.3
    5995.02  219033  12621.7  1489.3
    5995.47  219281  12578.7  1479.3
    5995.99  219371  12400.7  1455.3
    5996.51  219183  11998.7  1407.3
    5996.96  219242  11455.7  1344.3
    5997.49  219151  10613.7  1244.3
    5998.01  219304  9743.7  1137.3
    5998.54  219142  9017.7  1042.3
    5998.99  219012  8537.7   971.3
    5999.51  219055  8086.7   904.3
    6000.04  219023  7776.7   850.3
    6000.49  218768  7635.7   821.301
    6001.01  217440  7591.7   798.301
    6001.46  216206  7648.7   791.3
    6001.99  215161  7805.7   795.3
    6002.51  216562  8090.7   810.3
    6002.96  217853  8327.7   825.3
    6003.49  218769  8532.7   833.3
    6004.02  218810  8627.7   833.3
    6004.47  218971  8639.7   828.299
    6004.99  219061  8563.7   813.3
    6005.52  218927  8408.7   790.299
    6005.97  218722  8263.7   771.3
    6006.5  218715  8112.7   750.3
    6007.02  218799  7989.7   731.3
    6007.47  218794  7898.7   716.3
    6008  218862  7805.7   701.3
    6008.53  218854  7720.7   686.3
    6008.98  218943  7663.7   676.3
    6009.5  219085  7602.7   664.3
    6010.03  218832  7533.7   652.3
    6010.94  218848  7415.46   636.064
    6011.84  218678  7290.73   630.358
    6012.82  218924  7218.51   638.181
    6013.8  218980  7224.81   654.534
    6014.78  219112  7285.62   672.415
    6015.76  218861  7346.94   686.826
    6016.81  218899  7403.79   690.765
    6017.8  218896  7412.14   685.234
    6018.93  219184  7406   677.232
    6019.99  219207  7396.38   669.76
    6021.12  219116  7405.27   666.817
    6022.18  219633  7443.68   671.402
    6023.39  220004  7481.6   680.518
    6024.52  220322  7547.04   690.163
    6025.73  220444  7633.98   698.335
    6026.87  220659  7749.44   706.038
    6028.16  221093  7902.41   712.27
    6029.37  221592  8028.9   719.031
    6030.58  221764  8122.91   722.322
    6031.87  222113  8246.42   729.141
    6033.16  222262  8400.45   741.49
    6034.53  222653  8607.99   759.367
    6035.82  223241  8794.04   773.773
    6037.19  223891  8937.62   785.711
    6038.56  224064  8993.7   789.176
    6040  224397  9020.3   787.171
    6041.37  225001  9024.4   784.695
    6042.82  225318  8994.03   786.748
    6044.26  226098  8989.17   786.331
    6045.71  226436  8984.82   791.442
    6047.24  226926  8977.99   794.083
    6048.76  227470  8947.66   797.252
    6050.29  227985  8889.85   798.952
    6051.82  228757  8851.56   801.181
    6053.42  229236  8812.78   808.938
    6054.95  229826  8808.51   817.224
    6056.56  230494  8795.76   824.041
    6058.24  231068  8764.52   826.386
    6059.85  231646  8723.79   829.26
    6061.53  232087  8689.58   829.664
    6063.22  232518  8679.88   830.597
    6064.91  233275  8701.7   830.06
    6066.68  233762  8730.02   825.05
    6068.36  234526  8802.86   823.57
    6070.13  235434  8881.22   819.621
    6071.9  236278  8927.09   814.199
    6073.75  237255  8959.47   812.307
    6075.52  238058  9023.37   821.944
    6077.37  238793  9170.78   846.111
    6079.22  239713  9389.7   877.807
    6081.15  240478  9633.14   916.031
    6083  241252  9861.09   949.786
    6084.93  242253  10076.6   983.07
    6086.87  243093  10268.5  1005.88
    6088.8  244281  10444  1018.22
    6090.81  245238  10601  1017.09
    6092.83  246417  10725.5  1006.49
    6094.84  247302  10811.6   990.423
    6096.86  248192  10872.1   976.882
    6098.88  249300  10928.2   963.87
    6100.98  250303  10970.8   958.386
    6103.07  251560  11020.8   966.433
    6105.18  252385  11056.4   984.008
    6107.28  253637  11109.6  1010.11
    6109.46  254772  11121.2  1035.75
    6111.64  256039  11090.3  1057.91
    6113.83  257256  11040  1070.6
    6116.01  258309  11006.1  1079.82
    6118.28  259603  11008.8  1081.57
    6120.47  260696  11025  1081.85
    6122.74  261895  11091.7  1084.66
    6125.01  263198  11205  1094
    6127.36  264125  11343.7  1109.87
    6129.64  265710  11527.9  1134.26
    6131.99  266910  11715.7  1160.19
    6134.35  268357  11898  1184.65
    6136.79  269675  12037.8  1202.63
    6139.15  271189  12188.1  1216.14
    6141.59  272488  12350.9  1230.18
    6144.04  273861  12532.2  1246.76
    6146.48  275241  12709.1  1259.86
    6148.93  276702  12872.4  1268.49
    6151.46  278046  13019.3  1274.65
    6153.99  279496  13155.7  1285.34
    6156.53  280747  13289.6  1297.55
    6159.06  282615  13442  1304.3
    6161.6  283910  13568.9  1304.58
    6164.22  285357  13714.4  1303.38
    6166.84  286614  13835.3  1307.72
    6169.47  288133  13971.8  1328.58
    6172.1  289937  14155.8  1362.98
    6174.81  291560  14393.3  1405.9
    6177.52  293213  14660.3  1450.35
    6180.23  294654  14888.8  1492.33
    6182.95  296337  15053.8  1522.84
    6185.67  297812  15138.4  1539.88
    6188.47  299563  15211.4  1552.45
    6191.27  301124  15259  1561.54
    6194.08  302990  15338.1  1576.17
    6196.89  304756  15431.7  1591.33
    6199.7  306428  15539.8  1608.01
    6202.6  307839  15651.4  1624.23
    6205.5  309195  15789.6  1646.97
    6208.4  311007  15977.2  1672.24
    6211.3  312817  16147.4  1704.05
    6214.21  314425  16311.1  1727.38
    6217.2  316295  16506.3  1753.24
    6220.2  318226  16715  1774.62
    6223.19  320061  16930.2  1788.54
    6226.19  321821  17183  1804.99
    6229.2  323587  17427.2  1819.97
    6232.28  325478  17668  1831.48
    6235.38  325658  17822.3  1836.51
    6238.47  329920  18198.1  1864.08
    6241.56  322499  17910.4  1828.17
    6244.75  331519  18530.2  1889.79
    6247.85  334399  18799.5  1926.95
    6251.04  336579  19070.4  1973.63
    6254.23  338580  19356.7  2029.84
    6257.43  340353  19641.6  2088.58
    6260.71  342413  19912  2140.85
    6263.91  344331  20155.9  2177.65
    6267.2  346115  20375.3  2207.97
    6270.49  348346  20595.3  2233.83
    6273.79  350401  20776.7  2259.22
    6277.17  352591  20937.7  2286.13
    6280.48  354220  21046.1  2303.58
    6283.86  356312  21194.1  2325.55
    6287.26  358375  21388.6  2348.05
    6290.65  360466  21611.6  2375.08
    6294.06  362585  21891.1  2410.65
    6297.54  364432  22158.2  2448.74
    6300.95  366432  22417.7  2490.36
    6304.45  368820  22681.8  2529.51
    6307.95  371009  22927.4  2562.18
    6311.54  372832  23192.5  2592.39
    6315.05  374862  23468.1  2626.13
    6318.56  376929  23775.2  2656.39
    6322.16  379043  24088.8  2686.19
    6325.77  381483  24415  2718.51
    6329.38  383637  24735.6  2753.37
    6333.07  385543  25055.8  2787.75
    6336.69  388091  25395.5  2829.66
    6340.4  390483  25733.7  2874.1
    6344.11  392604  26033.4  2915.07
    6347.83  394833  26314.7  2958.57
    6351.55  396988  26573.4  3001.6
    6355.27  399338  26858.7  3047.16
    6359.09  401256  27156.4  3095.24
    6362.82  403430  27498.7  3145.86
    6366.65  405636  27891.5  3211
    6370.47  407834  28285.8  3270.68
    6374.31  410120  28662.6  3324.88
    6378.23  412093  29010  3369.62
    6382.07  414624  29368.8  3418.88
    6386.01  417240  29725.2  3466.67
    6389.95  419103  30023.1  3508.99
    6393.89  421467  30354.5  3556.84
    6397.84  423787  30663.4  3601.22
    6401.88  425910  30978.8  3647.13
    6405.84  427982  31285.7  3686.56
    6409.89  430196  31599.2  3727.54
    6413.95  432301  31926.1  3771.03
    6418.01  434646  32261.6  3824.05
    6422.08  436816  32606.6  3876.61
    6426.15  438623  32939.1  3924.69
    6430.32  441289  33358.1  3977.31
    6434.4  443708  33787.6  4032.44
    6438.58  445910  34248.7  4095.12
    6442.76  448295  34700.2  4149.32
    6446.95  450770  35154.3  4218.04
    6451.23  452753  35551.9  4283.31
    6455.43  455098  35998  4357.09
    6459.72  457480  36477.6  4430.41
    6463.93  460045  36958.7  4507.26
    6468.24  462513  37424.3  4575.63
    6472.55  464764  37865.5  4638.54
    6476.95  467198  38332.2  4713.98
    6481.28  469074  38769.3  4781.93
    6485.61  471131  39204  4847.43
    6490.03  473705  39688.2  4921.45
    6494.46  475825  40123  4986
    6498.9  478021  40565.2  5051.08
    6503.34  480276  40995  5112.69
    6507.79  482570  41406.2  5180.83
    6512.34  485038  41841  5254.49
    6516.8  487396  42315.3  5328.69
    6521.35  489764  42811.1  5413.42
    6525.92  491937  43273.4  5491.68
    6530.49  494106  43739.2  5564.46
    6535.07  496374  44236.5  5639.77
    6539.65  498778  44761.4  5716.61
    6544.25  500964  45261.8  5790.99
    6548.94  502534  45692.6  5859.89
    6553.54  504378  46167  5926.32
    6558.24  506506  46686.9  6009.28
    6562.95  508532  47218.4  6086.77
    6567.67  510626  47770.3  6174.78
    6572.4  513265  48392.7  6274.33
    6577.22  515737  49007.7  6376.41
    6581.96  517723  49549.2  6466.01
    6586.79  520614  50184.2  6565.14
    6591.55  522922  50726.7  6655.81
    6596.4  524987  51243.7  6742.01
    6601.26  527009  51761.2  6832.73
    6606.12  528974  52291.3  6918.98
    6611.09  531466  52925.8  7016.76
    6615.97  533415  53473.9  7112.07
    6620.95  535648  54076.5  7210.91
    6625.85  538250  54712.6  7310.28
    6630.85  540464  55318.2  7407.17
    6635.85  542662  55914.4  7514.6
    6640.87  544669  56506  7611.56
    6645.89  546602  57082.1  7707.05
    6650.92  549017  57696.8  7814.06
    6655.96  550790  58261  7916.61
    6661.1  553225  58926.7  8029.67
    6666.15  555347  59543.9  8128.29
    6671.31  557520  60162.6  8231.41
    6676.47  559464  60747.8  8331.06
    6681.64  560894  61301.6  8430.26
    6686.82  563108  61947.8  8532.98
    6692.01  564189  62460.6  8628.23
    6697.3  563750  62832.9  8698
    6702.51  541694  60818.7  8431.31
    6707.72  585629  66158.1  9195.15
    6713.04  580736  66053.9  9204.51
    6718.37  580872  66527.2  9290.41
    6723.7  581801  67098.1  9386.82
    6729.05  583136  67726.5  9495.79
    6734.4  583106  68224.3  9599.26
    6739.77  589894  69523.7  9809.27
    6745.14  588604  69867.6  9887.82
    6750.61  574527  68650.1  9742.89
    6756  581735  70047  9968.49
    6761.5  584082  70834.5  10111.6
    6766.91  598180  73015.4  10450.3
    6772.42  584491  71856.9  10315.5
    6777.94  603244  74701.9  10745.2
    6783.48  603818  75276.4  10854.4
    6789.02  604922  75908.5  10974.2
    6794.57  605417  76476.9  11082.5
    6800.23  602871  76674  11140.3
    6805.8  570384  73015.5  10634.7
    6811.48  624625  80534.6  11758.6
    6817.07  621409  80675.2  11815
    6822.77  621448  81267.3  11932.9
    6828.47  622188  81922.9  12054.4
    6834.19  624076  82724  12207.4
    6839.92  625427  83477.7  12357
    6845.66  626098  84161.8  12481
    6851.4  627856  84988.6  12633.6
    6857.16  630298  85919.7  12799.7
    6863.03  632029  86771.4  12956.4
    6868.81  634274  87717.7  13134.6
    6874.7  635830  88571.4  13303.3
    6880.5  637455  89434.6  13471.6
    6886.41  638487  90200.3  13623.3
    6892.33  640507  91119.7  13803.6
    6898.26  641695  91930.4  13970.4
    6904.2  643705  92889.7  14151.8
    6910.15  644879  93727.5  14314.7
    6916.11  646486  94620.8  14485.1
    6922.09  647174  95379.6  14638
    6928.18  648945  96341  14826.5
    6934.17  650551  97243.8  15006.5
    6940.28  651574  98071.2  15179.1
    6946.3  653125  99011.1  15363.1
    6952.43  654360  99876.6  15542.7
    6958.57  655403  100731  15718.8
    6964.62  656959  101659  15903.5
    6970.78  658329  102558  16087.7
    6976.96  660499  103629  16290.4
    6983.15  661762  104550  16484.6
    6989.35  662725  105419  16667.4
    6995.66  663767  106304  16848.7
    7001.88  665233  107281  17046.5
    7008.12  666855  108263  17240.9
    7014.47  667272  109071  17420.7
    7020.72  668762  110036  17617.2
    7027.1  670105  111017  17814.1
    7033.38  671050  111911  18007.6
    7039.77  672389  112885  18205.6
    7046.18  674266  113965  18422.1
    7052.6  675682  114982  18637.2
    7059.04  676469  115910  18834.7
    7065.48  678019  116977  19059.9
    7071.94  678897  117924  19264.5
    7078.41  679751  118892  19474.7
    7084.9  680548  119860  19676.4
    7091.39  681448  120825  19883.6
    7097.9  682648  121853  20102.4
    7104.53  683081  122767  20310.7
    7111.06  684360  123828  20536.5