File: data/Cr/cr2s3_100K_001.xdi
# XDI/1.0
# Column.1: energy eV
# Column.2: i0
# Column.3: itrans
# Column.4: irefer
# Beamline.name: SSRL 2-3
# Beamline.notes: vert slits = 0.6mm
# Detector.I0: N2 15cm
# Detector.I1: N2 30cm
# Detector.I2: N2 15cm
# Element.edge: K
# Element.symbol: Cr
# Mono.d_spacing: 3.13550
# Mono.name: Si(111)
# Mono.notes: unfocused, detuned 75%, clockwise at E=5990eV
# Sample.formula: Cr2S3
# Sample.name: Cr2S3
# Sample.prep: powder on tape (4 layers)
# Sample.reference: Cr foil
# Sample.temperature: 100K
# Scan.start_time: 1997-04-18 17:59:32
# ///
#    Note: mono d_spacing is nominal!
#     exafs to K16
#     396  E XMU XMUR I0
#-------------
#   energy   i0   itrans  irefer
    5759.99  222218  9172.7  1169.3
    5769.98  222081  9357.7  1198.3
    5780.01  221875  9543.7  1231.3
    5790  221425  9720.7  1262.3
    5799.97  221333  9910.7  1294.3
    5810.03  221171  10108.7  1330.3
    5820  221035  10306.7  1365.3
    5830  220765  10503.7  1398.3
    5839.97  220383  10693.7  1433.3
    5849.98  220078  10892.7  1468.3
    5860.02  220005  11102.7  1506.3
    5870.02  219662  11306.7  1544.3
    5879.99  219342  11512.7  1581.3
    5890  218872  11714.7  1615.3
    5899.97  218766  11928.7  1657.3
    5909.98  218405  12136.7  1694.3
    5920.02  217784  12334.7  1733.3
    5930.03  217637  12550.7  1774.3
    5939.99  217258  12762.7  1816.3
    5950  216991  12978.7  1854.3
    5959.97  216778  13195.7  1895.3
    5969.97  216059  13374.7  1930.3
    5970.49  216225  13395.7  1935.3
    5971.01  215788  13379.7  1932.3
    5971.53  215021  13342.7  1926.3
    5971.97  213939  13285.7  1918.3
    5972.49  212527  13204.7  1909.3
    5973.01  213219  13262.7  1917.3
    5973.53  215110  13392.7  1936.3
    5973.98  216045  13464.7  1946.3
    5974.5  216307  13486.7  1948.3
    5975.02  216546  13516.7  1954.3
    5975.46  216217  13503.7  1951.3
    5975.98  216266  13514.7  1955.3
    5976.51  216396  13532.7  1960.3
    5977.03  216207  13530.7  1959.3
    5977.47  216444  13558.7  1963.3
    5977.99  216542  13572.7  1966.3
    5978.52  216743  13593.7  1970.3
    5979.04  216817  13609.7  1972.3
    5979.48  216735  13612.7  1974.3
    5980.01  216300  13595.7  1971.3
    5980.53  216329  13605.7  1975.3
    5980.97  216116  13601.7  1973.3
    5981.49  216262  13626.7  1975.3
    5982.02  216454  13644.7  1978.3
    5982.46  216233  13637.7  1979.3
    5982.99  216780  13682.7  1983.3
    5983.51  216644  13679.7  1983.3
    5984.03  216709  13694.7  1985.3
    5984.48  216893  13711.7  1987.3
    5985  216609  13699.7  1985.3
    5985.52  215626  13643.7  1975.3
    5985.97  213083  13485.7  1952.3
    5986.49  205631  13015.7  1883.3
    5987.02  192478  12186.7  1760.3
    5987.46  186797  11833.7  1710.3
    5987.99  195703  12398.7  1786.3
    5988.51  204471  12952.7  1862.3
    5989.03  208800  13212.7  1890.3
    5989.48  211169  13345.7  1893.3
    5990  212552  13389.7  1865.3
    5990.53  213282  13343.7  1807.3
    5990.98  213440  13246.7  1750.3
    5991.5  213807  13106.7  1689.3
    5992.02  213760  12945.7  1637.3
    5992.47  214138  12866.7  1604.3
    5992.99  214162  12786.7  1569.3
    5993.52  214221  12763.7  1544.3
    5993.97  214723  12799.7  1532.3
    5994.49  214503  12799.7  1515.3
    5995.02  214608  12774.7  1501.3
    5995.47  214620  12709.7  1487.3
    5995.99  214760  12523.7  1461.3
    5996.51  214728  12101.7  1411.3
    5996.96  214657  11532.7  1346.3
    5997.49  214506  10663.7  1243.3
    5998.01  214744  9799.7  1135.3
    5998.54  214558  9078.7  1041.3
    5998.99  214218  8592.7   971.3
    5999.51  214628  8169.7   904.3
    6000.04  213696  7835.7   849.3
    6000.49  213588  7713.7   821.3
    6001.01  212483  7689.7   800.301
    6001.46  210905  7739.7   794.3
    6001.99  210244  7913.7   798.3
    6002.51  211665  8199.7   814.3
    6002.96  212727  8423.7   825.3
    6003.49  213866  8634.7   837.3
    6004.02  214147  8730.7   838.3
    6004.47  213954  8717.7   828.3
    6004.99  213734  8619.7   812.3
    6005.52  213820  8472.7   790.3
    6005.97  213925  8341.7   773.3
    6006.5  213951  8193.7   752.299
    6007.02  213844  8061.7   732.301
    6007.47  213790  7968.7   718.3
    6008  214245  7888.7   704.3
    6008.53  213482  7775.7   689.3
    6008.98  214112  7740.7   679.3
    6009.5  213967  7673.7   667.3
    6010.03  213872  7606.7   655.3
    6010.94  214002  7494.45   638.064
    6011.84  213896  7369.72   631.358
    6012.82  213852  7293.51   642.181
    6013.8  213596  7299.81   657.534
    6014.78  213713  7361.62   674.415
    6015.76  213657  7427.95   687.826
    6016.81  214082  7493.78   693.764
    6017.8  213953  7496.13   687.234
    6018.93  214313  7492   678.233
    6019.99  214456  7488.38   670.76
    6021.12  214591  7508.27   670.817
    6022.18  214953  7537.68   675.402
    6023.39  215015  7571.6   681.518
    6024.52  215115  7631.03   690.162
    6025.73  215396  7721.98   698.335
    6026.87  215783  7848.44   705.038
    6028.16  215945  7990.41   712.27
    6029.37  216415  8118.9   718.03
    6030.58  216526  8209.9   722.321
    6031.87  216822  8336.42   729.141
    6033.16  217632  8520.45   743.49
    6034.53  217909  8719.99   762.367
    6035.82  218285  8897.05   776.774
    6037.19  218636  9026.61   785.711
    6038.56  218760  9080.7   787.176
    6040  219521  9123.3   786.172
    6041.37  219994  9121.4   785.695
    6042.82  220355  9090.03   784.748
    6044.26  220727  9066.17   785.331
    6045.71  221430  9079.82   791.442
    6047.24  221777  9069.99   793.083
    6048.76  222702  9053.67   794.252
    6050.29  223376  9001.85   794.952
    6051.82  223874  8948.56   801.181
    6053.42  224200  8909.78   804.938
    6054.95  225026  8915.51   815.225
    6056.56  225489  8897.76   822.041
    6058.24  226100  8866.53   829.386
    6059.85  226788  8834.79   828.26
    6061.53  226977  8793.58   828.663
    6063.22  227092  8772.88   828.597
    6064.91  228449  8816.7   829.059
    6066.68  228987  8848.03   826.05
    6068.36  229785  8918.87   823.57
    6070.13  230591  8997.22   820.621
    6071.9  231417  9044.09   815.198
    6073.75  232108  9070.47   813.307
    6075.52  232904  9146.37   823.943
    6077.37  234072  9320.77   849.111
    6079.22  234713  9530.7   881.807
    6081.15  235538  9779.14   918.031
    6083  236404  10005.1   951.786
    6084.93  237479  10225.6   986.069
    6086.87  238301  10406.5  1007.88
    6088.8  239362  10586  1021.22
    6090.81  240397  10741  1019.09
    6092.83  241268  10856.5  1008.49
    6094.84  242201  10939.6   992.423
    6096.86  243127  10998.1   976.882
    6098.88  244241  11058.2   964.869
    6100.98  245152  11087.8   960.387
    6103.07  246302  11138.8   967.433
    6105.18  247543  11205.4   987.008
    6107.28  248504  11240.6  1012.11
    6109.46  249602  11251.2  1037.75
    6111.64  250443  11205.3  1057.91
    6113.83  251728  11167  1074.6
    6116.01  252965  11149.1  1083.82
    6118.28  254376  11168.8  1087.57
    6120.47  255375  11187  1087.85
    6122.74  256363  11243.7  1089.66
    6125.01  257955  11372  1101
    6127.36  259197  11518.7  1118.87
    6129.64  260427  11683.9  1141.26
    6131.99  261698  11864.7  1170.19
    6134.35  263288  12042  1192.64
    6136.79  264401  12179.8  1208.63
    6139.15  265915  12336.1  1224.14
    6141.59  267024  12493.9  1237.18
    6144.04  268204  12668.2  1252.76
    6146.48  270021  12866.1  1268.86
    6148.93  271267  13025.4  1276.49
    6151.46  272599  13178.3  1284.65
    6153.99  273807  13313.7  1292.34
    6156.53  275307  13459.6  1307.55
    6159.06  276770  13601  1313.3
    6161.6  278035  13729.9  1315.58
    6164.22  279486  13879.4  1313.38
    6166.84  280896  14017.3  1322.72
    6169.47  282450  14158.8  1341.58
    6172.1  284099  14337.8  1374.98
    6174.81  285738  14568.3  1418.9
    6177.52  287241  14821.3  1463.35
    6180.23  288810  15038.8  1503.33
    6182.95  290258  15192.8  1530.84
    6185.67  291668  15276.4  1548.88
    6188.47  293266  15353.4  1560.45
    6191.27  294839  15417  1569.55
    6194.08  296807  15510.1  1585.17
    6196.89  298687  15611.7  1602.33
    6199.7  300493  15730.8  1619.01
    6202.6  302209  15870.5  1640.23
    6205.5  303889  16026.6  1662.97
    6208.4  305224  16178.3  1685.24
    6211.3  306946  16353.4  1716.04
    6214.21  308856  16538.1  1743.38
    6217.2  310610  16735.3  1771.24
    6220.2  312437  16950  1790.63
    6223.19  314200  17178.2  1807.54
    6226.19  316058  17420  1822.99
    6229.2  317869  17674.2  1839.97
    6232.28  319745  17922  1851.48
    6235.38  319552  18049.3  1855.51
    6238.47  324103  18444.1  1883.08
    6241.56  316694  18143.4  1844.17
    6244.75  325852  18792.2  1910.79
    6247.85  328254  19053.6  1944.95
    6251.04  330497  19333.4  1991.63
    6254.23  332652  19630.8  2048.84
    6257.43  334438  19904.6  2104.58
    6260.71  336319  20169  2158.85
    6263.91  338207  20403.9  2196.65
    6267.2  340191  20634.3  2227.97
    6270.49  342339  20852.3  2251.83
    6273.79  344138  21019.7  2275.22
    6277.17  346113  21185.7  2301.13
    6280.48  348136  21336.1  2326.58
    6283.86  350036  21485.1  2346.55
    6287.26  352174  21699.6  2374.05
    6290.65  354058  21923.6  2404.09
    6294.06  355660  22164.2  2437.65
    6297.54  357643  22430.2  2475.74
    6300.95  359934  22707.7  2516.36
    6304.45  361940  22946.8  2554.51
    6307.95  364068  23201.4  2590.19
    6311.54  365912  23461.5  2623.39
    6315.05  368243  23774.1  2657.13
    6318.56  370348  24081.2  2684.39
    6322.16  372697  24406.8  2713.19
    6325.77  374656  24712  2743.51
    6329.38  377120  25050.6  2779.37
    6333.07  378891  25356.8  2817.75
    6336.69  380940  25681.5  2851.66
    6340.4  383288  26009.7  2897.1
    6344.11  385573  26332.4  2943.07
    6347.83  387787  26610.7  2990.57
    6351.55  390038  26900.4  3035.6
    6355.27  392290  27206.7  3079.16
    6359.09  394422  27534.4  3130.25
    6362.82  396554  27870.7  3188.86
    6366.65  398233  28228.5  3247.01
    6370.47  400853  28644.8  3313.68
    6374.31  402669  28979.6  3362.88
    6378.23  405541  29388  3413.62
    6382.07  407951  29743.8  3459.88
    6386.01  409146  30000.2  3498.67
    6389.95  411209  30321.1  3542.99
    6393.89  413426  30643.5  3590.84
    6397.84  415401  30938.4  3633.22
    6401.88  417721  31264.8  3677.13
    6405.84  419905  31587.7  3721.57
    6409.89  422458  31938.2  3771.54
    6413.95  424506  32265.1  3816.03
    6418.01  426986  32634.6  3870.05
    6422.08  429773  33038.6  3931.61
    6426.15  432011  33417.1  3980.69
    6430.32  433610  33761.1  4028.3
    6434.4  436074  34211.6  4082.44
    6438.58  437476  34597.7  4127.12
    6442.76  439813  35038.2  4188.32
    6446.95  441919  35455.3  4248.05
    6451.23  444273  35898.9  4322.31
    6455.43  446815  36365  4396.09
    6459.72  449252  36856.6  4475.41
    6463.93  451382  37305.7  4547.26
    6468.24  453913  37788.4  4613.64
    6472.55  455465  38168.5  4675.54
    6476.95  458531  38700.1  4752.97
    6481.28  460192  39110.3  4819.93
    6485.61  462851  39600  4894.42
    6490.03  465299  40082.2  4966.45
    6494.46  467480  40528.9  5031
    6498.9  469681  40975.2  5093.08
    6503.34  471770  41390.9  5155.69
    6507.79  473936  41818.2  5220.83
    6512.34  475953  42236  5287.49
    6516.8  478396  42720.2  5367.69
    6521.35  480883  43216.1  5446.42
    6525.92  483031  43689.4  5527.67
    6530.49  485336  44189.2  5605.45
    6535.07  488177  44739.5  5692.77
    6539.65  490663  45249.4  5767.61
    6544.25  492384  45715.7  5841.98
    6548.94  494458  46219.6  5912.89
    6553.54  496492  46715  5988.32
    6558.24  498780  47252  6064.28
    6562.95  500912  47800.4  6147.77
    6567.67  503098  48352.3  6237.79
    6572.4  505541  48960.7  6335.33
    6577.22  507973  49565.7  6437.4
    6581.96  509903  50112.2  6525.02
    6586.79  511985  50656.2  6617.14
    6591.55  514184  51200.7  6709.81
    6596.4  516138  51729.7  6796.01
    6601.26  518476  52291.2  6887.73
    6606.12  520704  52883.3  6980.98
    6611.09  523105  53483.8  7079.76
    6615.97  525448  54098.9  7180.07
    6620.95  527719  54707.5  7277.91
    6625.85  529448  55253.6  7366.28
    6630.85  531854  55883.2  7473.17
    6635.85  533824  56472.3  7575.6
    6640.87  536061  57079  7675.56
    6645.89  538570  57734.1  7785.05
    6650.92  540557  58310.8  7886.06
    6655.96  542470  58904  7987.6
    6661.1  544507  59518.7  8096.68
    6666.15  546805  60162.9  8206.28
    6671.31  548935  60758.6  8306.41
    6676.47  551060  61393.9  8419.07
    6681.64  552636  61965.6  8518.26
    6686.82  553979  62522.8  8618.98
    6692.01  555119  63059.6  8707.23
    6697.3  554657  63415.9  8779
    6702.51  532098  61287.7  8501.31
    6707.72  576668  66845  9290.14
    6713.04  571291  66662.9  9287.52
    6718.37  571494  67142.2  9372.41
    6723.7  572278  67704.1  9469.83
    6729.05  573525  68340.4  9585.78
    6734.4  573939  68883.4  9689.27
    6739.77  580472  70154.7  9897.27
    6745.14  579731  70554.7  9982.82
    6750.61  565616  69293.1  9835.89
    6756  574514  70930  10090.5
    6761.5  574666  71437.5  10188.6
    6766.91  589308  73740.4  10548.3
    6772.42  575584  72533.9  10402.5
    6777.94  593815  75357.9  10833.2
    6783.48  594629  75969.4  10949.4
    6789.02  596115  76682.4  11084.2
    6794.57  596045  77178.9  11192.5
    6800.23  593659  77389  11256.3
    6805.8  561724  73702.6  10745.7
    6811.48  614678  81247.7  11874.6
    6817.07  611441  81392.3  11929
    6822.77  611676  81966.3  12039.9
    6828.47  613138  82720.9  12185.4
    6834.19  614478  83479.1  12322.4
    6839.92  615569  84210.7  12463
    6845.66  616878  84973.9  12603
    6851.4  619347  85910.6  12776.6
    6857.16  620685  86691.7  12924.8
    6863.03  622142  87525.4  13086.4
    6868.81  623852  88380.6  13244.6
    6874.7  625473  89227.4  13411.3
    6880.5  627426  90142.6  13582.5
    6886.41  629179  91012.4  13753.3
    6892.33  630964  91917.6  13923.6
    6898.26  632539  92791.4  14094.4
    6904.2  634211  93691.7  14267.8
    6910.15  635868  94605.5  14447.7
    6916.11  636980  95411.8  14615.1
    6922.09  637770  96204.7  14773.1
    6928.18  639357  97129  14949.5
    6934.17  640965  98036.9  15135.5
    6940.28  642405  98966.2  15322.1
    6946.3  643897  99861.1  15509.1
    6952.43  645127  100774  15691.7
    6958.57  646608  101692  15872.8
    6964.62  649364  102820  16085.5
    6970.78  650279  103682  16265.7
    6976.96  651466  104582  16443.4
    6983.15  654428  105776  16677.6
    6989.35  655852  106714  16868.4
    6995.66  657116  107658  17064.7
    7001.88  658898  108662  17271.5
    7008.12  659549  109519  17444.9
    7014.47  660793  110465  17646.7
    7020.72  661232  111304  17820.1
    7027.1  662392  112242  18022.1
    7033.38  663546  113168  18213.6
    7039.77  665085  114196  18419.6
    7046.18  666371  115172  18627.1
    7052.6  667461  116168  18829.2
    7059.04  668596  117156  19040.7
    7065.48  669933  118185  19265.9
    7071.94  671114  119212  19483.5
    7078.41  672389  120227  19693.7
    7084.9  673122  121167  19900.4
    7091.39  674159  122177  20124.6
    7097.9  674855  123132  20332.4
    7104.53  675423  124068  20543.7
    7111.06  676519  125100  20764.5