File: data/Cr/cr2s3_rt_002.xdi
# XDI/1.0
# Column.1: energy eV
# Column.2: i0
# Column.3: itrans
# Beamline.name: SSRL 4-1
# Detector.I0: N2 15cm
# Detector.I1: N2 30cm
# Detector.I2: N2 15cm
# Element.edge: K
# Element.symbol: Cr
# Mono.d_spacing: 3.13550
# Mono.name: Si(111)
# Mono.notes: unfocused, detuned 30%,counter clockwise at E=6200eV
# Sample.formula: Cr2S3
# Sample.name: Cr2S3 chromium sesquisulfide
# Sample.prep: powder, mixed 1:50 with B(OH)3 by wt
# Sample.reference: none
# Sample.temperature: room temperature
# Scan.start_time: 1997-01-20 15:45:55
# ///
#    Note: mono d_spacing is nominal!
#     exafs to K15
#     381  E XMU I0
#-------------
#   energy   i0   itrans
    5789  250852  145240
    5799.62  251431  150180
    5810.25  251743  155092
    5820.88  252205  160301
    5831.5  252930  165793
    5842.12  253088  171123
    5852.75  253224  176519
    5863.37  253885  182460
    5874  253977  188062
    5884.62  254529  194218
    5895.25  254604  200185
    5905.88  255310  206820
    5916.5  255548  213197
    5927.12  256042  219928
    5937.75  255648  226105
    5948.38  256159  233177
    5959  256204  239909
    5959.76  256558  240745
    5960.52  256402  241095
    5961.27  256465  241645
    5962.03  256301  241892
    5962.79  256408  242532
    5963.54  256450  243068
    5964.3  256527  243616
    5965.06  256430  244000
    5965.82  256425  244492
    5966.58  256555  245106
    5967.33  256088  245139
    5968.09  256422  245974
    5968.85  256274  246236
    5969.6  256507  246949
    5970.36  256430  247409
    5971.12  256472  247894
    5971.88  255808  247684
    5972.64  254982  247327
    5973.39  254092  246961
    5974.15  254100  247643
    5974.91  254227  248431
    5975.67  254193  248832
    5976.42  253979  248789
    5977.18  254901  250034
    5977.94  255757  251436
    5978.7  256223  252356
    5979.45  256237  252792
    5980.21  256513  253530
    5980.97  256719  254232
    5981.73  256792  254708
    5982.48  256697  255030
    5983.24  255904  254690
    5984  253285  252594
    5984.76  243286  243151
    5985.52  233728  233627
    5986.27  242184  242049
    5987.03  250536  250415
    5987.79  253028  252891
    5988.54  254554  253116
    5989.3  255160  251453
    5990.06  255415  249208
    5990.82  255684  247608
    5991.58  255906  247010
    5992.33  256182  247181
    5993.09  255785  246055
    5993.85  254979  242307
    5994.6  253430  233282
    5995.36  251982  219048
    5996.12  251378  204201
    5996.88  252310  193159
    5997.64  253832  186292
    5998.39  255517  183653
    5999.15  255791  183766
    5999.91  255821  186415
    6000.67  256247  190321
    6001.42  256451  193418
    6002.18  256193  194500
    6002.94  255857  193327
    6003.7  256207  191283
    6004.45  256250  188950
    6005.21  256275  186952
    6005.97  256339  185334
    6006.73  256150  183916
    6007.49  256424  183088
    6008.24  256229  181892
    6009  256463  181004
    6009.01  256361  180882
    6009.04  256278  180769
    6009.09  256049  180540
    6009.15  256196  180563
    6009.24  256210  180480
    6009.35  256484  180553
    6009.47  256614  180480
    6009.62  256907  180497
    6009.78  256498  180061
    6009.97  256794  180133
    6010.17  257476  180430
    6010.39  257204  180066
    6010.63  257392  180149
    6010.89  257525  180212
    6011.17  257712  180364
    6011.47  258224  180859
    6011.79  258130  181026
    6012.13  258600  181648
    6012.48  258397  181792
    6012.86  258861  182529
    6013.26  259141  183130
    6013.67  259497  183778
    6014.1  259310  184056
    6014.56  259891  184850
    6015.03  260103  185313
    6015.53  260366  185643
    6016.04  260760  186049
    6016.57  261142  186459
    6017.12  261472  186826
    6017.69  261734  187207
    6018.28  261933  187626
    6018.88  262300  188246
    6019.51  262887  189068
    6020.16  263156  189682
    6020.83  263690  190534
    6021.51  264078  191361
    6022.21  264570  192333
    6022.94  264957  193413
    6023.69  265499  194741
    6024.44  265798  196050
    6025.23  266359  197772
    6026.03  266588  199338
    6026.85  267547  201375
    6027.69  267567  202699
    6028.55  268164  204499
    6029.43  268822  206417
    6030.32  269314  208602
    6031.24  269785  210892
    6032.18  270548  213502
    6033.14  271313  216089
    6034.11  271618  217934
    6035.1  272262  219839
    6036.12  272972  221323
    6037.15  273660  222480
    6038.2  274473  223555
    6039.27  274873  224006
    6040.36  275498  224485
    6041.47  275804  224705
    6042.6  276859  225670
    6043.75  277548  226378
    6044.92  278284  227062
    6046.11  278755  227341
    6047.31  279567  227677
    6048.54  280706  228148
    6049.79  281098  228158
    6051.05  281966  228716
    6052.33  282728  229309
    6053.64  283529  229961
    6054.96  284296  230467
    6056.3  284754  230600
    6057.66  285234  230684
    6059.04  285799  231036
    6060.44  286477  231695
    6061.86  287388  232846
    6063.3  287973  233909
    6064.76  288768  235470
    6066.23  289857  237468
    6067.73  290475  239084
    6069.24  291714  241179
    6070.78  292459  242756
    6072.34  293503  244807
    6073.91  294517  247462
    6075.5  295593  250844
    6077.11  296637  254527
    6078.74  297220  258112
    6080.4  298152  261894
    6082.07  299181  265495
    6083.76  300260  268917
    6085.47  301273  272102
    6087.19  302175  275027
    6088.94  303432  278001
    6090.7  304662  280721
    6092.49  305815  283118
    6094.3  306782  285043
    6096.12  307813  286968
    6097.97  308717  288732
    6099.83  310037  290863
    6101.71  310868  292542
    6103.61  312212  294649
    6105.53  313296  296289
    6107.47  314193  297440
    6109.43  315213  298446
    6111.41  316571  299788
    6113.41  317816  301142
    6115.43  318880  302660
    6117.46  320464  304852
    6119.52  321190  306577
    6121.6  322380  309144
    6123.69  323499  312041
    6125.81  324919  315547
    6127.94  326134  319071
    6130.09  327296  322604
    6132.26  328407  325926
    6134.45  329842  329666
    6136.66  331322  333379
    6138.89  332841  337372
    6141.14  334668  341890
    6143.41  335449  345508
    6145.7  336824  349552
    6148.01  338152  353496
    6150.33  339361  357250
    6152.68  340522  360961
    6155.05  342550  365516
    6157.43  343732  369195
    6159.83  345231  373135
    6162.26  346364  376718
    6164.7  347312  380145
    6167.16  349556  385038
    6169.64  350585  388821
    6172.14  352189  393650
    6174.66  353733  398692
    6177.2  355170  403497
    6179.76  356145  407371
    6182.33  357932  411655
    6184.93  359058  414727
    6187.55  360533  418234
    6190.18  362366  422050
    6192.84  363825  425698
    6195.51  365176  429262
    6198.2  366763  433516
    6200.92  368230  437669
    6203.65  369349  441647
    6206.4  371252  446843
    6209.17  372819  451635
    6211.96  374623  456869
    6214.77  376222  462261
    6217.6  377680  467581
    6220.45  379267  473242
    6223.31  380958  479294
    6226.2  382429  485094
    6229.1  384138  491356
    6232.03  386364  498201
    6234.97  385590  501226
    6237.94  387163  507345
    6240.92  391155  516734
    6243.92  384359  511655
    6246.94  393578  528041
    6249.98  395698  535390
    6253.04  397399  542268
    6256.12  399089  549079
    6259.22  400902  555813
    6262.34  402460  562199
    6265.48  404423  568988
    6268.63  405727  574706
    6271.81  407685  581323
    6275.01  409198  587126
    6278.22  411204  593603
    6281.45  413027  600020
    6284.71  414930  606870
    6287.98  416676  613846
    6291.27  418861  621671
    6294.58  420447  628654
    6297.91  422660  636659
    6301.26  423974  643340
    6304.63  425545  650577
    6308.02  427925  659364
    6311.43  429210  666879
    6314.85  431372  675670
    6318.3  432868  683658
    6321.77  434485  691978
    6325.25  436988  701924
    6328.76  438922  710969
    6332.28  440160  719146
    6335.82  442352  728876
    6339.38  444500  738438
    6342.97  445713  746401
    6346.56  447784  756137
    6350.19  449804  765654
    6353.82  451800  775538
    6357.48  453512  785088
    6361.16  456030  796289
    6364.86  457357  805612
    6368.57  459866  816986
    6372.31  461634  827109
    6376.07  464114  838347
    6379.84  465498  847796
    6383.63  467342  858010
    6387.45  469023  868067
    6391.28  471367  879228
    6395.13  472694  888665
    6399  475060  900339
    6402.89  477397  911975
    6406.8  479228  922890
    6410.73  481272  934435
    6414.68  483185  946023
    6418.65  485422  958391
    6422.63  487374  970427
    6426.64  489221  982834
    6430.67  490864  994998
    6434.71  492959  1.00815e+06
    6438.77  494934  1.02141e+06
    6442.86  496901  1.0345e+06
    6446.96  498876  1.04791e+06
    6451.08  501621  1.06333e+06
    6455.22  503527  1.07709e+06
    6459.38  505622  1.09138e+06
    6463.56  507702  1.10587e+06
    6467.76  510435  1.12169e+06
    6471.98  511614  1.13443e+06
    6476.22  514008  1.14986e+06
    6480.48  515883  1.16447e+06
    6484.75  517212  1.17785e+06
    6489.05  519689  1.19395e+06
    6493.36  521841  1.20945e+06
    6497.7  523602  1.22432e+06
    6502.05  525841  1.2401e+06
    6506.42  527869  1.25586e+06
    6510.82  529121  1.26983e+06
    6515.23  532154  1.28855e+06
    6519.66  533808  1.30395e+06
    6524.11  535886  1.32068e+06
    6528.58  537884  1.33737e+06
    6533.07  541625  1.35879e+06
    6537.58  542631  1.37346e+06
    6542.1  544983  1.39186e+06
    6546.65  545523  1.40595e+06
    6551.21  548809  1.42739e+06
    6555.8  550763  1.44564e+06
    6560.41  552654  1.46404e+06
    6565.03  554541  1.48267e+06
    6569.67  556572  1.50197e+06
    6574.33  558652  1.52157e+06
    6579.02  561184  1.54271e+06
    6583.72  563426  1.56308e+06
    6588.44  565609  1.58373e+06
    6593.18  567269  1.60303e+06
    6597.94  570092  1.62585e+06
    6602.72  571899  1.64624e+06
    6607.52  573816  1.66718e+06
    6612.33  575573  1.6879e+06
    6617.17  577610  1.70951e+06
    6622.02  579801  1.7321e+06
    6626.9  582178  1.7551e+06
    6631.79  583437  1.77533e+06
    6636.71  586479  1.8009e+06
    6641.64  588354  1.82335e+06
    6646.59  589734  1.84447e+06
    6651.56  592485  1.87006e+06
    6656.55  594201  1.89263e+06
    6661.56  596153  1.91633e+06
    6666.59  598210  1.94047e+06
    6671.64  599445  1.96222e+06
    6676.71  602101  1.98917e+06
    6681.8  603256  2.01161e+06
    6686.9  604775  2.03528e+06
    6692.03  606676  2.06078e+06
    6697.18  607526  2.08259e+06
    6702.34  608438  2.10535e+06
    6707.52  606248  2.1167e+06
    6712.73  590845  2.08114e+06
    6717.95  610930  2.18067e+06
    6723.19  627061  2.24971e+06
    6728.45  626762  2.27224e+06
    6733.73  626588  2.29343e+06
    6739.03  617426  2.28062e+06
    6744.35  631589  2.35583e+06
    6749.69  626378  2.3593e+06
    6755.04  641891  2.44033e+06
    6760.42  636740  2.44387e+06
    6765.82  633808  2.45248e+06
    6771.24  642039  2.5114e+06
    6776.67  641332  2.53266e+06
    6782.12  632929  2.52346e+06
    6787.6  619951  2.4948e+06
    6793.09  656213  2.66001e+06
    6798.6  661415  2.71248e+06
    6804.13  659305  2.72917e+06
    6809.68  659781  2.75684e+06
    6815.25  661288  2.78926e+06
    6820.84  662691  2.82185e+06
    6826.45  663801  2.8538e+06
    6832.08  665137  2.88669e+06
    6837.73  666873  2.92163e+06
    6843.39  668694  2.9576e+06
    6849.08  670005  2.99168e+06
    6854.78  671522  3.02687e+06
    6860.51  673998  3.06715e+06
    6866.25  675493  3.10356e+06