File: data/Cr/cr2s3_100K_004.xdi
# XDI/1.0
# Column.1: energy eV
# Column.2: i0
# Column.3: itrans
# Column.4: irefer
# Beamline.name: SSRL 2-3
# Beamline.notes: vert slits = 0.6mm
# Detector.I0: N2 15cm
# Detector.I1: N2 30cm
# Detector.I2: N2 15cm
# Element.edge: K
# Element.symbol: Cr
# Mono.d_spacing: 3.13550
# Mono.name: Si(111)
# Mono.notes: unfocused, detuned 75%, clockwise at E=5990eV
# Sample.formula: Cr2S3
# Sample.name: Cr2S3
# Sample.prep: powder on tape (4 layers)
# Sample.reference: Cr foil
# Sample.temperature: 100K
# Scan.start_time: 1997-04-18 17:59:32
# ///
#    Note: mono d_spacing is nominal!
#     exafs to K16
#     396  E XMU XMUR I0
#-------------
#   energy   i0   itrans  irefer
    5759.99  223721  9241.7  1180.3
    5769.98  223424  9421.7  1211.3
    5780.01  223236  9610.7  1243.3
    5790  222989  9794.7  1275.3
    5799.97  222656  9978.7  1307.3
    5810.03  222533  10180.7  1342.3
    5820  222088  10366.7  1376.3
    5830  221812  10560.7  1408.3
    5839.97  221617  10763.7  1446.3
    5849.98  221447  10970.7  1482.3
    5860.02  221234  11175.7  1519.3
    5870.02  220908  11381.7  1558.3
    5879.99  220662  11588.7  1594.3
    5890  220426  11797.7  1631.3
    5899.97  220136  12011.7  1671.3
    5909.98  219674  12218.7  1708.3
    5920.02  219376  12432.7  1750.3
    5930.03  218913  12631.7  1786.3
    5939.99  218794  12862.7  1830.3
    5950  218313  13067.7  1867.3
    5959.97  218120  13285.7  1908.3
    5969.97  217657  13486.7  1947.3
    5970.49  217384  13476.7  1945.3
    5971.01  217055  13468.7  1945.3
    5971.53  216148  13422.7  1941.3
    5971.97  214810  13348.7  1931.3
    5972.49  213729  13294.7  1922.3
    5973.01  214550  13352.7  1931.3
    5973.53  216124  13462.7  1948.3
    5973.98  217297  13551.7  1961.3
    5974.5  217390  13563.7  1963.3
    5975.02  217494  13579.7  1966.3
    5975.46  217581  13593.7  1969.3
    5975.98  217656  13611.7  1970.3
    5976.51  217511  13613.7  1973.3
    5977.03  217269  13606.7  1969.3
    5977.47  217367  13624.7  1972.3
    5977.99  217445  13640.7  1977.3
    5978.52  217299  13648.7  1975.3
    5979.04  217239  13648.7  1977.3
    5979.48  217455  13670.7  1983.3
    5980.01  217381  13676.7  1982.3
    5980.53  217258  13678.7  1983.3
    5980.97  217213  13685.7  1985.3
    5981.49  217392  13703.7  1986.3
    5982.02  217338  13704.7  1989.3
    5982.46  217232  13714.7  1989.3
    5982.99  217319  13722.7  1992.3
    5983.51  217623  13754.7  1995.3
    5984.03  217702  13762.7  1997.3
    5984.48  217501  13757.7  1993.3
    5985  217443  13760.7  1995.3
    5985.52  216323  13694.7  1985.3
    5985.97  213295  13508.7  1955.3
    5986.49  205551  13022.7  1884.3
    5987.02  192147  12173.7  1760.3
    5987.46  187837  11905.7  1721.3
    5987.99  197648  12532.7  1805.3
    5988.51  205617  13030.7  1873.3
    5989.03  210187  13308.7  1903.3
    5989.48  212374  13424.7  1903.3
    5990  213442  13443.7  1870.3
    5990.53  214295  13403.7  1811.3
    5990.98  214689  13312.7  1753.3
    5991.5  214658  13153.7  1692.3
    5992.02  214791  13006.7  1641.3
    5992.47  215075  12920.7  1606.3
    5992.99  215144  12844.7  1572.3
    5993.52  215124  12825.7  1551.3
    5993.97  215255  12837.7  1535.3
    5994.49  215392  12851.7  1523.3
    5995.02  215271  12815.7  1508.3
    5995.47  215159  12731.7  1491.3
    5995.99  215402  12538.7  1465.3
    5996.51  215543  12097.7  1412.3
    5996.96  215323  11494.7  1344.3
    5997.49  215239  10630.7  1240.3
    5998.01  215380  9763.7  1133.3
    5998.54  215156  9070.7  1041.3
    5998.99  215106  8607.7   973.3
    5999.51  215247  8175.7   906.3
    6000.04  215205  7877.7   854.3
    6000.49  214699  7755.7   825.3
    6001.01  213694  7743.7   806.3
    6001.46  212389  7811.7   800.3
    6001.99  211569  7982.7   805.3
    6002.51  213170  8278.7   823.3
    6002.96  214452  8508.7   837.3
    6003.49  215218  8701.7   845.3
    6004.02  215218  8780.7   843.3
    6004.47  215318  8775.7   835.3
    6004.99  215287  8683.7   818.3
    6005.52  215080  8520.7   795.3
    6005.97  215351  8394.7   778.3
    6006.5  215390  8244.7   758.3
    6007.02  215159  8113.7   737.301
    6007.47  215203  8023.7   723.3
    6008  215483  7943.7   710.3
    6008.53  215263  7850.7   693.3
    6008.98  215200  7788.7   683.3
    6009.5  215159  7717.7   670.3
    6010.03  215305  7661.7   657.3
    6010.94  215122  7539.46   642.064
    6011.84  214931  7415.73   635.358
    6012.82  215115  7347.51   644.181
    6013.8  215020  7353.81   660.534
    6014.78  214763  7399.62   678.414
    6015.76  214982  7481.95   692.826
    6016.81  215333  7543.78   698.765
    6017.8  215294  7550.14   694.234
    6018.93  215250  7527   683.233
    6019.99  215441  7529.38   676.76
    6021.12  215698  7551.27   674.817
    6022.18  215756  7570.68   678.402
    6023.39  215881  7608.6   685.518
    6024.52  216309  7678.03   694.162
    6025.73  216547  7769.98   707.335
    6026.87  216692  7880.45   711.039
    6028.16  217096  8037.41   719.27
    6029.37  217607  8164.9   723.031
    6030.58  217799  8258.9   728.321
    6031.87  217770  8375.42   734.14
    6033.16  218266  8555.45   748.49
    6034.53  218803  8762.99   767.368
    6035.82  219044  8934.05   779.774
    6037.19  219357  9061.62   790.711
    6038.56  219948  9132.7   792.176
    6040  220428  9162.3   792.171
    6041.37  220673  9154.41   791.695
    6042.82  221104  9129.03   790.747
    6044.26  221588  9112.17   791.331
    6045.71  222168  9119.82   796.442
    6047.24  222481  9104.99   799.083
    6048.76  222990  9073.66   798.252
    6050.29  223945  9032.85   801.952
    6051.82  224615  8986.56   807.181
    6053.42  224939  8946.78   811.938
    6054.95  225358  8930.52   821.225
    6056.56  226427  8937.76   831.041
    6058.24  226903  8902.52   832.386
    6059.85  227378  8858.79   835.26
    6061.53  228050  8832.59   835.664
    6063.22  228306  8820.88   836.597
    6064.91  228855  8832.7   834.06
    6066.68  229363  8864.03   830.05
    6068.36  230277  8937.86   829.57
    6070.13  230950  9007.22   825.621
    6071.9  231816  9058.09   819.198
    6073.75  232624  9088.47   818.307
    6075.52  233361  9165.37   828.944
    6077.37  234147  9323.78   854.111
    6079.22  235300  9559.7   888.806
    6081.15  236155  9803.13   923.031
    6083  236902  10032.1   957.785
    6084.93  237705  10234.6   990.069
    6086.87  238735  10425.5  1015.88
    6088.8  239779  10606  1026.22
    6090.81  240713  10759  1025.09
    6092.83  241714  10881.5  1013.49
    6094.84  242617  10958.6   998.423
    6096.86  243489  11019.1   983.881
    6098.88  244550  11072.2   973.87
    6100.98  245729  11121.8   967.387
    6103.07  247011  11181.8   974.433
    6105.18  247877  11217.4   994.008
    6107.28  248858  11260.6  1018.11
    6109.46  249928  11267.2  1046.75
    6111.64  251172  11240.3  1066.91
    6113.83  252334  11197  1080.6
    6116.01  253537  11169.2  1087.82
    6118.28  254787  11181.8  1093.57
    6120.47  255909  11208  1093.85
    6122.74  257164  11280.7  1098.66
    6125.01  258268  11384  1109
    6127.36  259566  11535.7  1128.87
    6129.64  260848  11704.9  1152.26
    6131.99  262154  11882.7  1177.19
    6134.35  263490  12056  1201.64
    6136.79  264721  12201.8  1219.63
    6139.15  266167  12349.1  1232.14
    6141.59  267446  12516.9  1246.19
    6144.04  268796  12698.2  1263.76
    6146.48  270124  12877.1  1276.86
    6148.93  271537  13040.4  1285.49
    6151.46  272899  13196.3  1294.65
    6153.99  274331  13343.7  1306.34
    6156.53  275580  13483.6  1317.55
    6159.06  276882  13613  1321.3
    6161.6  278536  13762.9  1325.58
    6164.22  279875  13907.4  1323.38
    6166.84  281472  14048.3  1330.72
    6169.47  283153  14198.8  1350.58
    6172.1  284725  14373.8  1382.97
    6174.81  286205  14597.3  1425.9
    6177.52  287907  14853.3  1473.35
    6180.23  289374  15083.8  1512.33
    6182.95  290873  15233.8  1540.84
    6185.67  292155  15317.4  1558.88
    6188.47  294097  15399.4  1572.45
    6191.27  295600  15455  1580.55
    6194.08  297180  15531.1  1594.17
    6196.89  298901  15636.7  1611.33
    6199.7  300516  15735.8  1627.01
    6202.6  302246  15871.4  1646.23
    6205.5  303937  16031.6  1669.97
    6208.4  305458  16196.2  1691.24
    6211.3  306923  16343.4  1719.04
    6214.21  308855  16530.1  1746.38
    6217.2  310577  16731.3  1773.24
    6220.2  312463  16949  1793.63
    6223.19  314386  17182.2  1809.54
    6226.19  316152  17429  1826.99
    6229.2  317979  17679.2  1842.97
    6232.28  319761  17924  1857.48
    6235.38  319705  18060.3  1855.51
    6238.47  324264  18457.1  1888.08
    6241.56  316738  18153.4  1848.17
    6244.75  325722  18783.2  1910.79
    6247.85  328544  19062.5  1944.95
    6251.04  330730  19334.4  1991.63
    6254.23  332519  19616.7  2046.84
    6257.43  334716  19924.6  2107.58
    6260.71  336575  20180  2158.85
    6263.91  338221  20389.9  2193.65
    6267.2  340207  20634.3  2223.97
    6270.49  342100  20835.3  2249.83
    6273.79  344098  21019.7  2276.21
    6277.17  345751  21155.7  2298.13
    6280.48  348115  21329.1  2323.58
    6283.86  350323  21493.1  2347.55
    6287.26  352550  21709.6  2374.05
    6290.65  354137  21935.6  2400.09
    6294.06  356172  22198.2  2434.65
    6297.54  358327  22478.2  2475.74
    6300.95  360296  22730.8  2515.36
    6304.45  362354  22973.8  2551.51
    6307.95  364344  23225.4  2586.19
    6311.54  366405  23506.5  2619.39
    6315.05  369011  23830.1  2657.13
    6318.56  370902  24122.2  2687.39
    6322.16  373087  24442.8  2714.19
    6325.77  374942  24733  2743.51
    6329.38  377354  25073.6  2783.36
    6333.07  379348  25397.8  2816.75
    6336.69  381768  25742.5  2858.66
    6340.4  384116  26068.7  2900.1
    6344.11  386294  26374.4  2946.07
    6347.83  388479  26659.6  2991.57
    6351.55  390593  26945.4  3035.6
    6355.27  392763  27241.7  3084.16
    6359.09  395039  27576.4  3135.25
    6362.82  397094  27903.7  3193.86
    6366.65  399147  28290.5  3260.01
    6370.47  401378  28682.8  3315.68
    6374.31  403654  29047.6  3371.88
    6378.23  405834  29409  3423.62
    6382.07  407863  29738.8  3463.88
    6386.01  409998  30066.2  3507.67
    6389.95  412115  30372.1  3547.99
    6393.89  414493  30719.5  3598.84
    6397.84  416522  31010.4  3644.22
    6401.88  419034  31363.8  3689.13
    6405.84  421309  31695.7  3730.57
    6409.89  423764  32046.2  3781.53
    6413.95  425795  32362.1  3827.03
    6418.01  428016  32708.6  3879.05
    6422.08  430562  33102.6  3940.61
    6426.15  432444  33449.1  3987.69
    6430.32  434864  33862.1  4045.3
    6434.4  437051  34285.7  4099.45
    6438.58  439052  34721.7  4152.12
    6442.76  441637  35188.2  4213.32
    6446.95  444251  35649.3  4279.05
    6451.23  446256  36063.9  4346.31
    6455.43  448999  36547  4429.09
    6459.72  450654  36975.6  4498.41
    6463.93  453621  37497.7  4577.26
    6468.24  455871  37938.4  4642.63
    6472.55  457834  38376.5  4705.54
    6476.95  460233  38840.1  4776.97
    6481.28  462498  39304.3  4846.93
    6485.61  465007  39789  4920.43
    6490.03  467601  40275.2  4993.45
    6494.46  469738  40719  5055
    6498.9  471947  41161.2  5119.08
    6503.34  474080  41605.9  5179.69
    6507.79  476296  42029.2  5245.82
    6512.34  478645  42489  5320.5
    6516.8  480735  42941.3  5397.69
    6521.35  483378  43461  5478.42
    6525.92  485650  43951.4  5558.68
    6530.49  488102  44453.2  5640.46
    6535.07  490129  44926.5  5713.77
    6539.65  492298  45433.4  5791.61
    6544.25  494359  45924.8  5866.99
    6548.94  496344  46407.6  5937.88
    6553.54  498096  46880  6005.32
    6558.24  500582  47454.9  6091.28
    6562.95  502682  47972.4  6172.77
    6567.67  504759  48526.3  6264.79
    6572.4  507706  49186.7  6364.33
    6577.22  509857  49768.7  6460.41
    6581.96  512151  50344.2  6557.02
    6586.79  514369  50908.2  6650.14
    6591.55  516151  51414.7  6737.81
    6596.4  518642  52001.7  6837
    6601.26  520997  52568.2  6926.73
    6606.12  523351  53168.3  7020.98
    6611.09  525869  53806.8  7125.76
    6615.97  527873  54376.9  7224.07
    6620.95  530028  54973.5  7314.91
    6625.85  532184  55575.6  7413.28
    6630.85  534601  56203.2  7515.18
    6635.85  536335  56753.3  7616.6
    6640.87  537892  57284  7706.56
    6645.89  540451  57946.1  7816.05
    6650.92  542906  58575.8  7919.06
    6655.96  545010  59199  8023.6
    6661.1  546632  59762.7  8121.68
    6666.15  549103  60427.9  8231.28
    6671.31  550792  61008.6  8329.42
    6676.47  553022  61623.8  8437.07
    6681.64  554957  62247.6  8543.26
    6686.82  556469  62818.9  8641.98
    6692.01  557766  63380.6  8740.23
    6697.3  557062  63721.9  8805.01
    6702.51  534407  61569.8  8529.31
    6707.72  579131  67130.1  9322.15
    6713.04  573920  66975.9  9324.51
    6718.37  574220  67488.2  9411.4
    6723.7  575080  68061.1  9515.83
    6729.05  575776  68621.5  9620.79
    6734.4  576360  69183.3  9725.26
    6739.77  582394  70399.7  9924.27
    6745.14  581232  70746.6  10002.8
    6750.61  567195  69505  9858.88
    6756  575140  71018  10096.5
    6761.5  576459  71677.5  10215.6
    6766.91  590753  73918.4  10564.3
    6772.42  577562  72788.9  10433.5
    6777.94  595881  75616.9  10858.2
    6783.48  596692  76252.4  10982.4
    6789.02  597068  76819.4  11096.2
    6794.57  597689  77425  11216.5
    6800.23  595512  77672  11288.3
    6805.8  563417  73948.5  10778.7
    6811.48  616445  81473.7  11904.6
    6817.07  613584  81659.2  11965
    6822.77  613800  82267.3  12084.9
    6828.47  614906  82978  12219.4
    6834.19  615973  83692.1  12356.4
    6839.92  617619  84487.7  12503
    6845.66  619191  85298.9  12655
    6851.4  621013  86143.5  12810.6
    6857.16  622454  86946.8  12965.8
    6863.03  623794  87739.4  13123.4
    6868.81  625095  88542.6  13275.6
    6874.7  626705  89432.4  13444.3
    6880.5  628110  90250.6  13606.5
    6886.41  629852  91129.3  13770.3
    6892.33  631481  91988.7  13938.6
    6898.26  633275  92909.4  14109.4
    6904.2  635177  93834.7  14280.8
    6910.15  638265  94946.5  14486.7
    6916.11  639423  95785.8  14660.1
    6922.09  639622  96477.6  14804
    6928.18  641169  97419  14990.5
    6934.17  643295  98405.8  15180.5
    6940.28  644844  99328.3  15374.1
    6946.3  645765  100161  15547.1
    6952.43  647843  101185  15748.7
    6958.57  649452  102131  15925.8
    6964.62  650054  102910  16091.5
    6970.78  651819  103932  16292.7
    6976.96  653200  104883  16491.4
    6983.15  654423  105769  16670.6
    6989.35  655143  106621  16848.4
    6995.66  657136  107668  17054.7
    7001.88  658055  108551  17239.5
    7008.12  659065  109428  17421.9
    7014.47  661418  110537  17633.7
    7020.72  663204  111600  17846.1
    7027.1  664307  112536  18041.1
    7033.38  665206  113443  18229.6
    7039.77  666428  114418  18441.6
    7046.18  667144  115291  18623.1
    7052.6  668665  116365  18849.2
    7059.04  669774  117329  19061.8
    7065.48  671213  118367  19280.9
    7071.94  672293  119384  19493.5
    7078.41  673574  120418  19714.7
    7084.9  674578  121412  19928.4
    7091.39  676445  122579  20167.6
    7097.9  676250  123366  20355.4
    7104.53  676947  124328  20567.7
    7111.06  678026  125336  20789.5