File: data/Cr/cr2s3_rt_003.xdi
# XDI/1.0
# Column.1: energy eV
# Column.2: i0
# Column.3: itrans
# Beamline.name: SSRL 4-1
# Detector.I0: N2 15cm
# Detector.I1: N2 30cm
# Detector.I2: N2 15cm
# Element.edge: K
# Element.symbol: Cr
# Mono.d_spacing: 3.13550
# Mono.name: Si(111)
# Mono.notes: unfocused, detuned 30%,counter clockwise at E=6200eV
# Sample.formula: Cr2S3
# Sample.name: Cr2S3 chromium sesquisulfide
# Sample.prep: powder, mixed 1:50 with B(OH)3 by wt
# Sample.reference: none
# Sample.temperature: room temperature
# Scan.start_time: 1997-01-20 15:45:55
# ///
#    Note: mono d_spacing is nominal!
#     exafs to K15
#     381  E XMU I0
#-------------
#   energy   i0   itrans
    5789  242417  139709
    5799.62  243269  144650
    5810.25  243766  149529
    5820.88  244203  154526
    5831.5  244836  159848
    5842.12  245144  165076
    5852.75  245460  170402
    5863.37  245716  175883
    5874  245471  181154
    5884.62  245816  186952
    5895.25  246337  193022
    5905.88  246496  198959
    5916.5  246124  204613
    5927.12  246516  211088
    5937.75  246427  217227
    5948.38  246719  223878
    5959  246378  230024
    5959.76  246587  230732
    5960.52  246092  230703
    5961.27  246180  231288
    5962.03  246033  231556
    5962.79  246235  232285
    5963.54  246079  232659
    5964.3  246322  233348
    5965.06  245684  233202
    5965.82  246118  234029
    5966.58  246073  234517
    5967.33  245802  234722
    5968.09  245738  235147
    5968.85  245703  235582
    5969.6  245912  236311
    5970.36  245605  236457
    5971.12  245489  236791
    5971.88  244887  236663
    5972.64  244536  236770
    5973.39  243454  236181
    5974.15  243228  236593
    5974.91  243288  237379
    5975.67  242929  237419
    5976.42  242988  237687
    5977.18  243174  238172
    5977.94  244013  239454
    5978.7  244651  240612
    5979.45  245082  241496
    5980.21  245348  242180
    5980.97  245011  242266
    5981.73  245192  242910
    5982.48  245275  243370
    5983.24  244686  243210
    5984  242835  241781
    5984.76  235175  234711
    5985.52  223492  223357
    5986.27  228947  228493
    5987.03  238247  238112
    5987.79  241684  241314
    5988.54  242905  241642
    5989.3  243607  240353
    5990.06  244290  238565
    5990.82  244198  236510
    5991.58  244532  235974
    5992.33  244703  236054
    5993.09  244733  235577
    5993.85  243892  232403
    5994.6  242679  224945
    5995.36  240810  211743
    5996.12  240310  197544
    5996.88  240928  186155
    5997.64  242409  178956
    5998.39  243968  175801
    5999.15  244583  175586
    5999.91  244853  177860
    6000.67  244754  181231
    6001.42  245169  184524
    6002.18  244940  185994
    6002.94  245340  185768
    6003.7  245203  183611
    6004.45  245290  181372
    6005.21  245272  179381
    6005.97  245423  177859
    6006.73  245426  176561
    6007.49  245487  175555
    6008.24  245619  174658
    6009  245339  173466
    6009.01  245418  173435
    6009.04  245080  173212
    6009.09  245499  173413
    6009.15  245503  173339
    6009.24  245198  173054
    6009.35  246032  173526
    6009.47  246079  173410
    6009.62  246019  173188
    6009.78  246260  173173
    6009.97  246077  172884
    6010.17  246728  173187
    6010.39  246669  172965
    6010.63  247087  173139
    6010.89  247082  173097
    6011.17  247347  173228
    6011.47  247390  173391
    6011.79  247694  173747
    6012.13  248185  174370
    6012.48  248478  174850
    6012.86  248632  175323
    6013.26  248968  176007
    6013.67  249187  176536
    6014.1  249161  176934
    6014.56  249503  177533
    6015.03  250143  178299
    6015.53  250306  178618
    6016.04  250858  179137
    6016.57  251347  179639
    6017.12  250874  179422
    6017.69  251884  180304
    6018.28  252145  180737
    6018.88  252500  181356
    6019.51  252933  181965
    6020.16  253660  182946
    6020.83  253868  183560
    6021.51  254376  184391
    6022.21  254582  185160
    6022.94  255164  186291
    6023.69  255925  187711
    6024.44  256162  188945
    6025.23  256980  190766
    6026.03  257798  192693
    6026.85  258021  194121
    6027.69  258585  195878
    6028.55  258859  197379
    6029.43  259575  199302
    6030.32  260089  201348
    6031.24  260926  203896
    6032.18  261405  206175
    6033.14  262078  208672
    6034.11  262530  210635
    6035.1  263372  212730
    6036.12  263928  214103
    6037.15  264404  215131
    6038.2  265221  216214
    6039.27  265945  216986
    6040.36  266666  217555
    6041.47  267264  218040
    6042.6  267921  218603
    6043.75  268830  219485
    6044.92  269505  220148
    6046.11  270194  220595
    6047.31  270798  220746
    6048.54  271622  221011
    6049.79  272361  221311
    6051.05  273449  222022
    6052.33  273914  222427
    6053.64  274948  223232
    6054.96  275647  223744
    6056.3  276520  224198
    6057.66  277181  224444
    6059.04  277588  224600
    6060.44  278446  225445
    6061.86  278925  226152
    6063.3  279802  227478
    6064.76  280818  229099
    6066.23  281703  230928
    6067.73  282869  233001
    6069.24  283461  234531
    6070.78  284549  236308
    6072.34  285128  237897
    6073.91  286123  240427
    6075.5  287322  243839
    6077.11  288434  247531
    6078.74  289100  251041
    6080.4  290358  255029
    6082.07  291247  258486
    6083.76  292082  261627
    6085.47  293494  265170
    6087.19  294663  268327
    6088.94  295768  271135
    6090.7  296310  273115
    6092.49  297773  275788
    6094.3  298765  277743
    6096.12  300180  280009
    6097.97  300908  281637
    6099.83  302501  284035
    6101.71  303216  285532
    6103.61  304590  287670
    6105.53  305711  289353
    6107.47  306672  290549
    6109.43  308043  291974
    6111.41  309305  293217
    6113.41  310869  294798
    6115.43  311624  295999
    6117.46  313276  298265
    6119.52  314611  300558
    6121.6  315478  302722
    6123.69  317060  306005
    6125.81  318038  309048
    6127.94  319479  312642
    6130.09  320468  316026
    6132.26  322061  319843
    6134.45  323336  323160
    6136.66  324731  326919
    6138.89  325885  330505
    6141.14  327670  334935
    6143.41  328555  338590
    6145.7  330146  342832
    6148.01  331677  346979
    6150.33  333054  350841
    6152.68  334570  354808
    6155.05  335849  358624
    6157.43  337061  362212
    6159.83  338765  366394
    6162.26  340013  370053
    6164.7  341355  373881
    6167.16  342874  377966
    6169.64  344352  382146
    6172.14  346161  387101
    6174.66  347337  391628
    6177.2  348716  396397
    6179.76  350303  400996
    6182.33  352260  405388
    6184.93  353645  408832
    6187.55  355147  412293
    6190.18  356736  415802
    6192.84  358003  419139
    6195.51  359724  423220
    6198.2  361739  427786
    6200.92  363301  432052
    6203.65  364511  436138
    6206.4  366145  440901
    6209.17  367785  445820
    6211.96  369198  450582
    6214.77  370975  456035
    6217.6  372368  461196
    6220.45  373969  466900
    6223.31  375806  472987
    6226.2  377636  479184
    6229.1  379443  485493
    6232.03  380932  491484
    6234.97  381233  495836
    6237.94  381621  500242
    6240.92  386078  510243
    6243.92  378935  504593
    6246.94  388649  521753
    6249.98  391134  529387
    6253.04  392555  535860
    6256.12  394242  542642
    6259.22  395826  549051
    6262.34  397790  555930
    6265.48  399712  562611
    6268.63  401286  568805
    6271.81  403703  575889
    6275.01  405546  582093
    6278.22  406607  587256
    6281.45  408935  594328
    6284.71  410938  601366
    6287.98  412187  607433
    6291.27  414730  615747
    6294.58  416101  622321
    6297.91  418089  630057
    6301.26  420233  638047
    6304.63  421606  644941
    6308.02  423607  653093
    6311.43  426332  662608
    6314.85  428611  671564
    6318.3  429340  678394
    6321.77  431294  687162
    6325.25  433533  696615
    6328.76  435354  705538
    6332.28  437346  714853
    6335.82  439328  724104
    6339.38  441710  733985
    6342.97  443256  742689
    6346.56  445581  752553
    6350.19  447914  762663
    6353.82  449274  771252
    6357.48  451234  781256
    6361.16  453074  791235
    6364.86  455096  801716
    6368.57  457139  812119
    6372.31  459294  822895
    6376.07  461387  833532
    6379.84  464235  845596
    6383.63  465092  853894
    6387.45  466866  864086
    6391.28  468983  874948
    6395.13  471367  886300
    6399  473393  897247
    6402.89  475184  907848
    6406.8  477027  918810
    6410.73  479661  931383
    6414.68  481324  942367
    6418.65  484050  955852
    6422.63  485631  967212
    6426.64  488010  980429
    6430.67  489803  992853
    6434.71  491680  1.00562e+06
    6438.77  494021  1.01958e+06
    6442.86  495590  1.03199e+06
    6446.96  498036  1.04632e+06
    6451.08  500828  1.06162e+06
    6455.22  502423  1.07477e+06
    6459.38  504632  1.08948e+06
    6463.56  506743  1.10364e+06
    6467.76  508545  1.11773e+06
    6471.98  510418  1.13186e+06
    6476.22  513613  1.14915e+06
    6480.48  515323  1.16326e+06
    6484.75  517584  1.17883e+06
    6489.05  519132  1.19284e+06
    6493.36  521472  1.20868e+06
    6497.7  523808  1.22482e+06
    6502.05  525876  1.24027e+06
    6506.42  528057  1.25626e+06
    6510.82  530399  1.27304e+06
    6515.23  531900  1.28788e+06
    6519.66  534683  1.30623e+06
    6524.11  537082  1.3237e+06
    6528.58  538263  1.33835e+06
    6533.07  541044  1.35724e+06
    6537.58  542626  1.37359e+06
    6542.1  544767  1.39149e+06
    6546.65  547039  1.40986e+06
    6551.21  548797  1.4273e+06
    6555.8  551352  1.44719e+06
    6560.41  553394  1.46591e+06
    6565.03  555750  1.48596e+06
    6569.67  558034  1.50578e+06
    6574.33  559569  1.524e+06
    6579.02  562005  1.54489e+06
    6583.72  564157  1.56519e+06
    6588.44  566386  1.5859e+06
    6593.18  568941  1.60775e+06
    6597.94  569893  1.62553e+06
    6602.72  572728  1.64859e+06
    6607.52  574454  1.66907e+06
    6612.33  576854  1.69149e+06
    6617.17  578578  1.71234e+06
    6622.02  580400  1.73377e+06
    6626.9  582736  1.75687e+06
    6631.79  584829  1.77966e+06
    6636.71  586636  1.8014e+06
    6641.64  589448  1.82658e+06
    6646.59  590607  1.84723e+06
    6651.56  593144  1.87205e+06
    6656.55  595114  1.89545e+06
    6661.56  596856  1.91852e+06
    6666.59  598885  1.94259e+06
    6671.64  601142  1.96777e+06
    6676.71  602832  1.9915e+06
    6681.8  604144  2.01442e+06
    6686.9  606027  2.03925e+06
    6692.03  607690  2.06381e+06
    6697.18  608744  2.08666e+06
    6702.34  610089  2.11076e+06
    6707.52  608452  2.12419e+06
    6712.73  592155  2.08531e+06
    6717.95  612210  2.18531e+06
    6723.19  628179  2.25312e+06
    6728.45  628444  2.27811e+06
    6733.73  627084  2.295e+06
    6739.03  619993  2.28967e+06
    6744.35  633235  2.36159e+06
    6749.69  628415  2.36624e+06
    6755.04  644239  2.4485e+06
    6760.42  638093  2.44833e+06
    6765.82  633378  2.45011e+06
    6771.24  643649  2.51723e+06
    6776.67  642198  2.53545e+06
    6782.12  635846  2.5345e+06
    6787.6  621859  2.50229e+06
    6793.09  657597  2.66455e+06
    6798.6  663167  2.71938e+06
    6804.13  661142  2.73612e+06
    6809.68  661977  2.76546e+06
    6815.25  662372  2.7935e+06
    6820.84  664753  2.83004e+06
    6826.45  665961  2.8624e+06
    6832.08  667216  2.89505e+06
    6837.73  669794  2.93374e+06
    6843.39  670286  2.96394e+06
    6849.08  672501  3.00203e+06
    6854.78  674292  3.03894e+06
    6860.51  676631  3.0786e+06
    6866.25  678424  3.11633e+06