File: data/Cr/cro2_rt_002.xdi
# XDI/1.0
# Column.1: energy eV
# Column.2: i0
# Column.3: itrans
# Column.4: irefer
# Beamline.name: SSRL 2-3
# Beamline.notes: vert slits = 0.6mm
# Detector.I0: N2 15cm
# Detector.I1: N2 30cm
# Detector.I2: N2 15cm
# Element.edge: K
# Element.symbol: Cr
# Mono.d_spacing: 3.13550
# Mono.name: Si(111)
# Mono.notes: unfocused, detuned 75%, clockwise at E=5990eV
# Sample.formula: CrO2
# Sample.name: CrO2
# Sample.prep: powder on tape (4 layers)
# Sample.reference: Cr foil
# Sample.temperature: room temp
# Scan.start_time: 1997-04-17 19:39:50
# ///
#    Note: mono d_spacing is nominal!
#     exafs to K16
#     396  E XMU XMUR I0
#-------------
#   energy   i0   itrans  irefer
    5759.99  25429.9  22252.5  2825.7
    5769.98  25400.9  22599.5  2886.7
    5780.01  25379.9  22963.5  2951.7
    5790  25315.9  23293.5  3014.7
    5799.97  25288.9  23664.5  3081.7
    5810.03  25235.9  24014.5  3148.7
    5820  25171.9  24352.5  3213.7
    5830  25142.9  24718.5  3279.7
    5839.97  25098.9  25075.5  3348.7
    5849.98  25050.9  25438.5  3418.7
    5860.02  25012.9  25815.5  3488.7
    5870.02  24977.9  26188.5  3562.7
    5879.99  24928.9  26562.5  3635.7
    5890  24884.9  26943.5  3708.7
    5899.97  24816.9  27285.5  3780.7
    5909.98  24776.9  27670.5  3853.7
    5920.02  24701.9  28013.5  3922.7
    5930.03  24641.9  28376.5  3997.7
    5939.99  24588.9  28741.5  4070.7
    5950  24538.9  29113.5  4147.7
    5959.97  24488.9  29485.5  4222.7
    5969.97  24416.9  29822.5  4291.7
    5970.49  24413.9  29839.5  4294.7
    5971.01  24355.9  29785.5  4287.7
    5971.53  24265.9  29703.5  4276.7
    5971.97  24164.9  29592.5  4259.7
    5972.49  24047.9  29476.5  4244.7
    5973.01  24064.9  29514.5  4252.7
    5973.53  24222.9  29726.5  4283.7
    5973.98  24353.9  29911.5  4311.7
    5974.5  24433.9  30034.5  4328.7
    5975.02  24421.9  30041.5  4330.7
    5975.46  24415.9  30055.5  4334.7
    5975.98  24439.9  30106.5  4343.7
    5976.51  24437.9  30121.5  4346.7
    5977.03  24425.9  30126.5  4348.7
    5977.47  24416.9  30138.5  4348.7
    5977.99  24436.9  30176.5  4356.7
    5978.52  24435.9  30191.5  4359.7
    5979.04  24423.9  30213.5  4360.7
    5979.48  24412.9  30208.5  4358.7
    5980.01  24432.9  30262.5  4368.7
    5980.53  24422.9  30273.5  4371.7
    5980.97  24426.9  30284.5  4375.7
    5981.49  24412.9  30290.5  4376.7
    5982.02  24433.9  30346.5  4384.7
    5982.46  24440.9  30364.5  4389.7
    5982.99  24422.9  30363.5  4383.7
    5983.51  24444.9  30414.5  4394.7
    5984.03  24470.9  30467.5  4401.7
    5984.48  24461.9  30484.5  4402.7
    5985  24430.9  30458.5  4397.7
    5985.52  24358.9  30393.5  4388.7
    5985.97  24171.9  30178.5  4355.7
    5986.49  23673.9  29576.5  4267.7
    5987.02  22490.9  28117.5  4052.7
    5987.46  21286.9  26624.5  3833.7
    5987.99  21606.9  27036.5  3888.7
    5988.51  22744.9  28484.5  4087.7
    5989.03  23346.9  29249.5  4182.7
    5989.48  23645.9  29648.5  4218.7
    5990  23904.9  29986.5  4214.7
    5990.53  23996.9  30099.5  4128.7
    5990.98  24051.9  30173.5  4027.7
    5991.5  24102.9  30211.5  3926.7
    5992.02  24126.9  30209.5  3844.7
    5992.47  24126.9  30186.5  3784.7
    5992.99  24127.9  30191.5  3723.7
    5993.52  24158.9  30233.5  3676.7
    5993.97  24180.9  30242.5  3638.7
    5994.49  24164.9  30215.5  3593.7
    5995.02  24161.9  30198.5  3556.7
    5995.47  24172.9  30225.5  3540.7
    5995.99  24187.9  30268.5  3533.7
    5996.51  24161.9  30272.5  3531.7
    5996.96  24147.9  30278.5  3530.7
    5997.49  24168.9  30337.5  3536.7
    5998.01  24155.9  30342.5  3526.7
    5998.54  24149.9  30336.5  3496.7
    5998.99  24130.9  30308.5  3450.7
    5999.51  24164.9  30313.5  3387.7
    6000.04  24127.9  30201.5  3303.7
    6000.49  24095.9  30086.5  3232.7
    6001.01  24003.9  29811.5  3137.7
    6001.46  23924.9  29560.5  3058.7
    6001.99  23782.9  29189.5  2964.7
    6002.51  23790.9  28983.5  2898.7
    6002.96  23922.9  28959.5  2862.7
    6003.49  24073.9  28923.5  2823.7
    6004.02  24142.9  28794.5  2775.7
    6004.47  24104.9  28576.5  2730.7
    6004.99  24128.9  28429.5  2688.7
    6005.52  24136.9  28262.5  2645.7
    6005.97  24118.9  28103.5  2611.7
    6006.5  24105.9  27886.5  2569.7
    6007.02  24123.9  27668.5  2525.7
    6007.47  24113.9  27435.5  2483.7
    6008  24111.9  27158.5  2432.7
    6008.53  24091.9  26821.5  2378.7
    6008.98  24122.9  26576.5  2338.7
    6009.5  24114.9  26220.5  2287.7
    6010.03  24099.9  25900.5  2234.7
    6010.94  24084.7  25551.3  2174.46
    6011.84  24091  25433.5  2166.76
    6012.82  24090.8  25415.3  2206.58
    6013.8  24094.1  25518.6  2276.93
    6014.78  24097  25690.4  2341.81
    6015.76  24121.4  25944.7  2395.22
    6016.81  24138.3  26189.5  2424.16
    6017.8  24131.7  26331.8  2422.63
    6018.93  24131.7  26449.7  2403.62
    6019.99  24164.2  26652  2394.15
    6021.12  24183.2  26876.9  2397.2
    6022.18  24217.8  27064.3  2414.79
    6023.39  24210.8  27134.1  2433.9
    6024.52  24253.4  27187.5  2455.54
    6025.73  24280.6  27173.4  2462.71
    6026.87  24298.2  27144.8  2447.41
    6028.16  24322.4  27150.8  2425.63
    6029.37  24356.1  27253.2  2414.39
    6030.58  24396.3  27481.1  2420.68
    6031.87  24434.1  27774.6  2433.49
    6033.16  24457.4  28060.6  2451.84
    6034.53  24500.2  28368  2477.71
    6035.82  24564.5  28670  2503.11
    6037.19  24591.4  28935.5  2525.04
    6038.56  24633.8  29202.5  2539.5
    6040  24671.7  29449  2547.49
    6041.37  24702.1  29617.1  2554.01
    6042.82  24781.1  29779.6  2572.06
    6044.26  24835.6  29860.6  2590.63
    6045.71  24880.6  29900.2  2606.73
    6047.24  24915.1  29953.3  2621.37
    6048.76  24987.2  30090.8  2644.53
    6050.29  25048.8  30234.9  2678.22
    6051.82  25120.9  30413.5  2717.44
    6053.42  25173.5  30527.6  2760.19
    6054.95  25214.7  30600.3  2797.47
    6056.56  25312.4  30691.4  2838.28
    6058.24  25370.6  30731  2865.61
    6059.85  25441.4  30762.2  2887.48
    6061.53  25447.6  30745.8  2900.87
    6063.22  25474.4  30771  2908.8
    6064.91  25583.8  30913.7  2913.25
    6066.68  25653.6  31004.9  2900.23
    6068.36  25741  31102.6  2881.74
    6070.13  25804.9  31156.8  2850.78
    6071.9  25891.3  31296.5  2828.34
    6073.75  26005.3  31516.8  2829.44
    6075.52  26097.8  31754.5  2867.07
    6077.37  26195.8  32006.8  2920.22
    6079.22  26274.3  32226.5  2983.91
    6081.15  26354.4  32474.8  3053.12
    6083  26449  32713.6  3119.86
    6084.93  26541.1  32941.9  3184.13
    6086.87  26647.7  33174.7  3223.93
    6088.8  26770.9  33428  3236.26
    6090.81  26863.6  33636.9  3208.12
    6092.83  26964.8  33861.2  3161.5
    6094.84  27056.5  34088.1  3107.42
    6096.86  27175.8  34360.4  3066.86
    6098.88  27273.6  34604.3  3038.84
    6100.98  27418.9  34933.7  3037.34
    6103.07  27530.7  35228.6  3069.37
    6105.18  27651.1  35519  3137.93
    6107.28  27752  35747.9  3224.02
    6109.46  27867.4  35976.3  3323.64
    6111.64  27976.4  36173.2  3417.79
    6113.83  28100.8  36417.7  3502.46
    6116.01  28236.8  36725.6  3570.67
    6118.28  28381.4  37085.1  3617.4
    6120.47  28527.4  37463.1  3650.67
    6122.74  28639  37823.6  3676.46
    6125.01  28772.1  38218.6  3706.78
    6127.36  28891.7  38568.1  3751.63
    6129.64  29013.9  38904.1  3803.01
    6131.99  29162.6  39246.6  3866.91
    6134.35  29282.8  39525.6  3916.35
    6136.79  29437.5  39825.2  3956.32
    6139.15  29585.8  40096.2  3984.81
    6141.59  29729.6  40382.8  4008.83
    6144.04  29884.9  40691.9  4030.39
    6146.48  30006.7  40949.5  4046.47
    6148.93  30169.1  41266.6  4051.08
    6151.46  30304  41524.2  4056.22
    6153.99  30476.4  41832.3  4074.89
    6156.53  30606.3  42105.9  4096.09
    6159.06  30782.8  42486.1  4113.81
    6161.6  30938.8  42852.7  4116.07
    6164.22  31098.3  43227.9  4103.85
    6166.84  31249.3  43604.6  4117.17
    6169.47  31408.9  43984.8  4170.01
    6172.1  31581  44386.5  4253.38
    6174.81  31741.6  44801.7  4356.28
    6177.52  31923.8  45292.4  4467.71
    6180.23  32085.5  45728.6  4562.67
    6182.95  32260.7  46191.3  4654.15
    6185.67  32435.4  46649.6  4728.17
    6188.47  32585.6  47084.3  4792.72
    6191.27  32778.4  47582.6  4852.79
    6194.08  32939.7  48003.4  4914.39
    6196.89  33120.5  48459.7  4975.53
    6199.7  33292.9  48894.5  5042.18
    6202.6  33456.8  49314.8  5098.38
    6205.5  33659.2  49760.6  5162.1
    6208.4  33834.1  50209.9  5236.34
    6211.3  34019.6  50697.8  5319.12
    6214.21  34218.6  51191.1  5405.43
    6217.2  34383.1  51683  5471.26
    6220.2  34579.1  52205.4  5522.62
    6223.19  34747.7  52674.2  5548.52
    6226.19  34941.8  53201.6  5575.94
    6229.2  35152.4  53744.5  5601.89
    6232.28  35344.5  54267  5620.37
    6235.38  35409.2  54565.9  5613.38
    6238.47  35782.4  55336.3  5659.91
    6241.56  35012.1  54343.3  5534.98
    6244.75  35933.4  56005.7  5697.58
    6247.85  36181.1  56646.7  5782.7
    6251.04  36453.4  57330.2  5903.35
    6254.23  36639.2  57850.1  6036.53
    6257.43  36867.6  58430.6  6187.25
    6260.71  37068.5  58977.6  6310.48
    6263.91  37289.9  59551.2  6410.25
    6267.2  37472.8  60081.2  6482.56
    6270.49  37682.2  60691.7  6555.38
    6273.79  37861.2  61221.8  6626.74
    6277.17  38064.7  61791.3  6709.63
    6280.48  38298.8  62393.4  6797.04
    6283.86  38484.3  62970  6874.98
    6287.26  38684.4  63588.1  6951.45
    6290.65  38948  64318.7  7039.45
    6294.06  39136.1  64915.8  7119.98
    6297.54  39354.8  65549.4  7216.04
    6300.95  39536  66124.5  7316.63
    6304.45  39762.7  66789.2  7415.74
    6307.95  39929.9  67368.3  7496.4
    6311.54  40234.7  68177  7599.57
    6315.05  40446  68827.2  7676.27
    6318.56  40653.8  69476.9  7734.5
    6322.16  40869.1  70166.1  7790.26
    6325.77  41098  70873.8  7851.55
    6329.38  41290.4  71527  7922.37
    6333.07  41523.3  72261.7  8007.72
    6336.69  41741.8  72970.9  8090.6
    6340.4  41968.7  73679.7  8189
    6344.11  42191.2  74401  8296.94
    6347.83  42393.3  75096.7  8415.4
    6351.55  42643.8  75899  8540.4
    6355.27  42866.9  76657.8  8659.93
    6359.09  43079.5  77421.1  8784.98
    6362.82  43290.6  78154.9  8921.55
    6366.65  43529.3  78934.2  9065.66
    6370.47  43738.4  79697.1  9197.31
    6374.31  43980.1  80481.4  9318.47
    6378.23  44195.4  81258.2  9427.16
    6382.07  44440.1  82079.6  9534.39
    6386.01  44647.4  82842.5  9644.14
    6389.95  44855.2  83607.9  9755.43
    6393.89  45109.5  84453.8  9879.24
    6397.84  45359.4  85309.2  10001.6
    6401.88  45563.8  86109.1  10114.4
    6405.84  45814.7  86985.5  10224.8
    6409.89  46050.1  87819.4  10348.8
    6413.95  46269.1  88643.9  10467.2
    6418.01  46454.6  89432.8  10590.2
    6422.08  46709.6  90328.3  10728.7
    6426.15  46911.1  91142.3  10846.8
    6430.32  47170.2  92089.8  10977.3
    6434.4  47367.8  92925.8  11080.4
    6438.58  47599.9  93847.3  11196.1
    6442.76  47796.6  94701.3  11310.2
    6446.95  48054.7  95691.8  11456.9
    6451.23  48276.4  96617.9  11613.1
    6455.43  48486.7  97529.4  11773.9
    6459.72  48753.4  98568.5  11943.2
    6463.93  48958.7  99433  12093
    6468.24  49172.5  100337  12237.3
    6472.55  49387.8  101272  12385.2
    6476.95  49634.7  102300  12537.6
    6481.28  49820  103151  12682.5
    6485.61  50066.9  104161  12850.9
    6490.03  50298.4  105162  13002.9
    6494.46  50505.3  106123  13153.4
    6498.9  50760.8  107193  13304.5
    6503.34  50939.8  108106  13441
    6507.79  51179.4  109172  13610.1
    6512.34  51444.4  110289  13797.7
    6516.8  51636  111237  13962.9
    6521.35  51881.1  112313  14148.6
    6525.92  52064.8  113297  14323.8
    6530.49  52308.9  114403  14499.5
    6535.07  52525.6  115449  14668.8
    6539.65  52706.8  116382  14824.6
    6544.25  52922.6  117471  14988.9
    6548.94  53116.8  118540  15150.8
    6553.54  53252.6  119432  15295.1
    6558.24  53469.9  120535  15468.1
    6562.95  53712.8  121688  15656.5
    6567.67  53905.2  122712  15831.5
    6572.4  54171.1  123934  16036
    6577.22  54409.5  125087  16221
    6581.96  54590.4  126133  16406.6
    6586.79  54813.9  127258  16608.6
    6591.55  54983.9  128273  16787.3
    6596.4  55184.4  129390  16980.4
    6601.26  55405.5  130531  17175.1
    6606.12  55648.1  131778  17383.3
    6611.09  55843.2  132927  17577
    6615.97  56057.8  134118  17778.3
    6620.95  56268  135289  17981.1
    6625.85  56439.6  136390  18165.4
    6630.85  56657.8  137596  18374.2
    6635.85  56876.6  138820  18585.6
    6640.87  57084.8  140018  18799.5
    6645.89  57299.6  141266  19019.9
    6650.92  57477.9  142434  19232.9
    6655.96  57669.8  143612  19440.4
    6661.1  57839.1  144773  19662.4
    6666.15  58036  145972  19871
    6671.31  58222.4  147182  20085
    6676.47  58437.4  148446  20303.6
    6681.64  58540.8  149428  20489.8
    6686.82  58722.8  150664  20710.5
    6692.01  58743.4  151462  20872.7
    6697.3  58571.4  151803  20967.4
    6702.51  55962  145706  20174.6
    6707.72  61028.1  159715  22164.4
    6713.04  60523.7  159184  22140.7
    6718.37  60491.8  159897  22295.6
    6723.7  60544.5  160829  22481.9
    6729.05  60495.7  161564  22641.8
    6734.4  60472.4  162345  22812.3
    6739.77  60990.7  164583  23191.2
    6745.14  61022.5  165487  23378.7
    6750.61  60130.8  163949  23223.7
    6756  59497.6  163023  23161.2
    6761.5  60926  167775  23893.3
    6766.91  61947.9  171484  24490.9
    6772.42  60511.3  168370  24114
    6777.94  62389.2  174498  25060.7
    6783.48  62395.7  175439  25255.9
    6789.02  62419.6  176386  25468.6
    6794.57  62378.2  177151  25655.9
    6800.23  62028.2  177067  25710.6
    6805.8  59726.8  171391  24954.9
    6811.48  64749.8  186824  27259.8
    6817.07  64154.5  186031  27214.1
    6822.77  64042.6  186631  27383
    6828.47  64046.3  187630  27595.4
    6834.19  64189.5  189069  27885.4
    6839.92  64275.2  190277  28142.8
    6845.66  64376.4  191538  28403.9
    6851.4  64495.2  192864  28665.4
    6857.16  64616.5  194221  28931.5
    6863.03  64704.3  195507  29208
    6868.81  64817.7  196890  29488.2
    6874.7  64922.5  198256  29761.8
    6880.5  65016.9  199559  30023
    6886.41  65141.9  200978  30334.7
    6892.33  65280.3  202454  30635.9
    6898.26  65338.3  203678  30911.7
    6904.2  65522.8  205342  31236
    6910.15  65574.8  206526  31508.8
    6916.11  65670.4  207891  31806.2
    6922.09  65649.5  208888  32046
    6928.18  65765.1  210363  32362.5
    6934.17  65885.2  211843  32683.4
    6940.28  65980.9  213287  32992.9
    6946.3  66097.1  214718  33317.9
    6952.43  66225.8  216263  33655.4
    6958.57  66316  217675  33955.5
    6964.62  66325.8  218804  34228.1
    6970.78  66458.1  220344  34547.2
    6976.96  66489.9  221607  34829.8
    6983.15  66676.2  223375  35200
    6989.35  66690.1  224564  35470.7
    6995.66  66778.5  225958  35788.9
    7001.88  66899.4  227524  36114.7
    7008.12  66882.9  228603  36375
    7014.47  67023.8  230223  36734.8
    7020.72  67093.3  231611  37041.1
    7027.1  67180.3  233101  37381
    7033.38  67208.9  234343  37682.4
    7039.77  67325  235904  38030.3
    7046.18  67332.6  237124  38316.8
    7052.6  67430.7  238648  38665.8
    7059.04  67461.3  239915  38976.3
    7065.48  67527.5  241375  39312.4
    7071.94  67585.2  242797  39645.9
    7078.41  67690.5  244373  40000
    7084.9  67634.2  245384  40268.7
    7091.39  67543.5  246275  40517.8
    7097.9  67607.3  247701  40854.5
    7104.53  67611.6  248941  41166.8
    7111.06  67722.5  250617  41552.5