File: data/Cr/cro2_rt_001.xdi
# XDI/1.0
# Column.1: energy eV
# Column.2: i0
# Column.3: itrans
# Column.4: irefer
# Beamline.name: SSRL 2-3
# Beamline.notes: vert slits = 0.6mm
# Detector.I0: N2 15cm
# Detector.I1: N2 30cm
# Detector.I2: N2 15cm
# Element.edge: K
# Element.symbol: Cr
# Mono.d_spacing: 3.13550
# Mono.name: Si(111)
# Mono.notes: unfocused, detuned 75%, clockwise at E=5990eV
# Sample.formula: CrO2
# Sample.name: CrO2
# Sample.prep: powder on tape (4 layers)
# Sample.reference: Cr foil
# Sample.temperature: room temp
# Scan.start_time: 1997-04-17 19:39:50
# ///
#    Note: mono d_spacing is nominal!
#     exafs to K16
#     396  E XMU XMUR I0
#-------------
#   energy   i0   itrans  irefer
    5759.99  25548.9  22358.5  2841.7
    5769.98  25512.9  22705.5  2901.7
    5780.01  25476.9  23058.5  2966.7
    5790  25419.9  23394.5  3026.7
    5799.97  25374.9  23741.5  3093.7
    5810.03  25330.9  24093.5  3158.7
    5820  25274.9  24444.5  3221.7
    5830  25226.9  24796.5  3289.7
    5839.97  25190.9  25158.5  3357.7
    5849.98  25150.9  25529.5  3428.7
    5860.02  25101.9  25899.5  3498.7
    5870.02  25046.9  26258.5  3569.7
    5879.99  24990.9  26634.5  3638.7
    5890  24936.9  26989.5  3711.7
    5899.97  24859.9  27329.5  3780.7
    5909.98  24807.9  27698.5  3854.7
    5920.02  24751.9  28074.5  3928.7
    5930.03  24698.9  28441.5  4003.7
    5939.99  24639.9  28804.5  4076.7
    5950  24604.9  29188.5  4156.7
    5959.97  24550.9  29560.5  4230.7
    5969.97  24474.9  29883.5  4297.7
    5970.49  24436.9  29871.5  4295.7
    5971.01  24400.9  29850.5  4293.7
    5971.53  24342.9  29801.5  4288.7
    5971.97  24236.9  29690.5  4272.7
    5972.49  24090.9  29535.5  4251.7
    5973.01  24105.9  29568.5  4256.7
    5973.53  24259.9  29782.5  4285.7
    5973.98  24422.9  29990.5  4320.7
    5974.5  24462.9  30071.5  4330.7
    5975.02  24491.9  30118.5  4341.7
    5975.46  24471.9  30116.5  4340.7
    5975.98  24502.9  30179.5  4347.7
    5976.51  24473.9  30156.5  4345.7
    5977.03  24477.9  30187.5  4351.7
    5977.47  24480.9  30215.5  4354.7
    5977.99  24488.9  30249.5  4361.7
    5978.52  24444.9  30217.5  4356.7
    5979.04  24462.9  30254.5  4362.7
    5979.48  24472.9  30285.5  4368.7
    5980.01  24486.9  30318.5  4374.7
    5980.53  24472.9  30330.5  4374.7
    5980.97  24484.9  30354.5  4379.7
    5981.49  24485.9  30385.5  4384.7
    5982.02  24487.9  30406.5  4388.7
    5982.46  24495.9  30437.5  4394.7
    5982.99  24487.9  30446.5  4394.7
    5983.51  24519.9  30504.5  4401.7
    5984.03  24511.9  30519.5  4404.7
    5984.48  24497.9  30521.5  4402.7
    5985  24491.9  30538.5  4406.7
    5985.52  24436.9  30492.5  4400.7
    5985.97  24247.9  30263.5  4365.7
    5986.49  23751.9  29660.5  4276.7
    5987.02  22624.9  28267.5  4070.7
    5987.46  21385.9  26739.5  3847.7
    5987.99  21590.9  27020.5  3883.7
    5988.51  22748.9  28492.5  4086.7
    5989.03  23393.9  29314.5  4188.7
    5989.48  23720.9  29734.5  4224.7
    5990  23941.9  30024.5  4217.7
    5990.53  24050.9  30177.5  4140.7
    5990.98  24118.9  30259.5  4044.7
    5991.5  24157.9  30287.5  3937.7
    5992.02  24167.9  30268.5  3852.7
    5992.47  24186.9  30266.5  3792.7
    5992.99  24198.9  30283.5  3736.7
    5993.52  24209.9  30300.5  3681.7
    5993.97  24198.9  30279.5  3637.7
    5994.49  24216.9  30273.5  3596.7
    5995.02  24223.9  30288.5  3563.7
    5995.47  24228.9  30291.5  3545.7
    5995.99  24205.9  30285.5  3530.7
    5996.51  24204.9  30314.5  3529.7
    5996.96  24224.9  30364.5  3535.7
    5997.49  24213.9  30384.5  3537.7
    5998.01  24187.9  30378.5  3527.7
    5998.54  24212.9  30405.5  3501.7
    5998.99  24201.9  30379.5  3457.7
    5999.51  24189.9  30337.5  3389.7
    6000.04  24159.9  30238.5  3307.7
    6000.49  24153.9  30148.5  3239.7
    6001.01  24079.9  29912.5  3145.7
    6001.46  23948.9  29601.5  3060.7
    6001.99  23804.9  29224.5  2966.7
    6002.51  23827.9  29051.5  2901.7
    6002.96  23952.9  29024.5  2865.7
    6003.49  24093.9  28965.5  2823.7
    6004.02  24173.9  28830.5  2778.7
    6004.47  24174.9  28657.5  2735.7
    6004.99  24185.9  28494.5  2690.7
    6005.52  24167.9  28309.5  2648.7
    6005.97  24165.9  28164.5  2614.7
    6006.5  24160.9  27963.5  2571.7
    6007.02  24173.9  27739.5  2527.7
    6007.47  24148.9  27487.5  2484.7
    6008  24142.9  27208.5  2434.7
    6008.53  24156.9  26914.5  2385.7
    6008.98  24179.9  26655.5  2343.7
    6009.5  24138.9  26267.5  2287.7
    6010.03  24143.9  25956.5  2238.7
    6010.94  24145.7  25617.3  2175.46
    6011.84  24145  25480.5  2167.76
    6012.82  24130.8  25453.3  2206.58
    6013.8  24139.1  25565.6  2274.93
    6014.78  24148  25738.4  2340.81
    6015.76  24165.4  25979.7  2395.22
    6016.81  24166.3  26209.5  2423.16
    6017.8  24177.7  26367.8  2422.63
    6018.93  24203.7  26524.7  2408.62
    6019.99  24222.2  26694  2395.15
    6021.12  24217.2  26900.9  2394.2
    6022.18  24230.8  27073.3  2410.79
    6023.39  24265.8  27193.1  2434.9
    6024.52  24299.4  27235.5  2454.54
    6025.73  24309.6  27203.4  2459.71
    6026.87  24324.2  27171.8  2447.41
    6028.16  24377.4  27200.8  2426.64
    6029.37  24413.1  27301.2  2415.39
    6030.58  24449.3  27519.1  2419.68
    6031.87  24491.1  27819.6  2436.49
    6033.16  24515.4  28117.6  2453.84
    6034.53  24576.2  28450  2478.71
    6035.82  24596.5  28701  2502.11
    6037.19  24641.4  28988.5  2524.04
    6038.56  24667.8  29241.5  2536.5
    6040  24734.7  29511  2548.49
    6041.37  24777.1  29694.1  2557.01
    6042.82  24833.1  29835.6  2574.05
    6044.26  24870.6  29897.6  2588.63
    6045.71  24929.6  29961.2  2606.73
    6047.24  25000.1  30045.3  2623.37
    6048.76  25072.2  30178.8  2646.53
    6050.29  25114.8  30311.9  2676.22
    6051.82  25168.9  30459.5  2712.44
    6053.42  25247.5  30608.6  2763.19
    6054.95  25315.7  30699.3  2801.47
    6056.56  25371.4  30758.4  2835.28
    6058.24  25453.6  30806  2867.61
    6059.85  25520.4  30846.2  2889.48
    6061.53  25550.6  30858.8  2908.87
    6063.22  25591.4  30897  2917.79
    6064.91  25671.8  31017.7  2919.25
    6066.68  25756.6  31122.9  2907.23
    6068.36  25814  31185.6  2888.74
    6070.13  25874.9  31253.8  2854.78
    6071.9  26013.3  31439.5  2838.35
    6073.75  26113.3  31639.8  2835.44
    6075.52  26178.8  31842.5  2870.07
    6077.37  26269.8  32099.8  2923.22
    6079.22  26341.3  32327.5  2988.91
    6081.15  26421.4  32579.8  3057.12
    6083  26596  32900.6  3131.86
    6084.93  26651.1  33082.9  3191.13
    6086.87  26750.7  33309.7  3233.93
    6088.8  26843.9  33521  3244.26
    6090.81  26930.6  33719.9  3215.12
    6092.83  27060.8  33986.2  3171.5
    6094.84  27162.5  34224.1  3117.42
    6096.86  27289.8  34501.4  3076.87
    6098.88  27389.6  34757.3  3047.84
    6100.98  27495.9  35039.7  3042.34
    6103.07  27558.7  35271.6  3065.37
    6105.18  27653.1  35530  3131.93
    6107.28  27748  35744.9  3219.02
    6109.46  27879.4  36006.3  3319.64
    6111.64  28021.4  36252.2  3421.79
    6113.83  28138.8  36487.7  3501.46
    6116.01  28260.8  36769.6  3567.67
    6118.28  28367.4  37072.1  3610.4
    6120.47  28493.4  37421.1  3640.66
    6122.74  28636  37820.6  3670.46
    6125.01  28755.1  38195.6  3701.78
    6127.36  28907.7  38601.1  3749.63
    6129.64  29042.9  38948.1  3805
    6131.99  29197.6  39295.6  3865.92
    6134.35  29328.8  39580.6  3914.35
    6136.79  29472.5  39877.2  3959.32
    6139.15  29612.8  40141.2  3983.81
    6141.59  29737.6  40393.8  4003.83
    6144.04  29886.9  40687.9  4026.39
    6146.48  30050.7  41015.5  4049.47
    6148.93  30178.1  41278.6  4052.08
    6151.46  30334  41564.2  4057.22
    6153.99  30499.4  41869.3  4072.89
    6156.53  30669.3  42202  4102.09
    6159.06  30816.8  42552.1  4116.81
    6161.6  30971.8  42909.7  4113.07
    6164.22  31126.3  43288.9  4102.85
    6166.84  31287.3  43662.6  4114.17
    6169.47  31457.9  44037.8  4167.01
    6172.1  31607  44411.5  4249.38
    6174.81  31774.6  44850.7  4351.28
    6177.52  31935.8  45286.4  4457.71
    6180.23  32109.5  45755.6  4554.67
    6182.95  32269.7  46188.3  4641.16
    6185.67  32436.4  46638.6  4716.17
    6188.47  32572.6  47064.3  4776.71
    6191.27  32750.4  47521.6  4834.79
    6194.08  32898.7  47943.4  4892.39
    6196.89  33094.5  48414.7  4962.52
    6199.7  33270.9  48841.5  5024.19
    6202.6  33433.8  49253.8  5081.38
    6205.5  33611.2  49681.6  5140.1
    6208.4  33788.1  50126.9  5220.34
    6211.3  33971.6  50615.8  5306.12
    6214.21  34167.6  51135.1  5388.42
    6217.2  34347.1  51635  5456.26
    6220.2  34544.1  52152.4  5508.62
    6223.19  34728.7  52640.2  5538.52
    6226.19  34919.8  53172.6  5560.94
    6229.2  35097.4  53677.5  5584.89
    6232.28  35268.5  54160  5601.37
    6235.38  35365.2  54495.9  5597.38
    6238.47  35752.4  55286.3  5645.92
    6241.56  35022.1  54372.3  5531.98
    6244.75  35889.4  55966.7  5686.57
    6247.85  36159.1  56632.7  5770.7
    6251.04  36414.4  57285.2  5888.35
    6254.23  36579.2  57784.1  6020.54
    6257.43  36804.6  58343.6  6163.24
    6260.71  36980.5  58841.6  6289.49
    6263.91  37216.9  59458.2  6389.26
    6267.2  37392.8  59979.2  6463.56
    6270.49  37632.2  60625.7  6541.38
    6273.79  37828.2  61175.8  6614.74
    6277.17  38030.7  61740.3  6697.62
    6280.48  38244.8  62320.4  6781.04
    6283.86  38449.3  62924  6862.98
    6287.26  38633.4  63509.1  6930.45
    6290.65  38849  64151.7  7009.45
    6294.06  39090.1  64819.8  7098.98
    6297.54  39291.8  65433.4  7192.04
    6300.95  39438  65957.5  7287.63
    6304.45  39707.7  66698.2  7392.74
    6307.95  39880.9  67289.3  7477.39
    6311.54  40112.7  67979  7565.56
    6315.05  40327  68611.2  7639.27
    6318.56  40550.8  69281.9  7701.5
    6322.16  40753.1  69946.1  7761.27
    6325.77  40971  70645.8  7823.56
    6329.38  41191.4  71339  7896.38
    6333.07  41398.3  72025.7  7975.72
    6336.69  41638.8  72746.9  8062.6
    6340.4  41886.7  73499.7  8162.01
    6344.11  42073.2  74171  8265.94
    6347.83  42292.3  74873.7  8378.41
    6351.55  42538.8  75689  8507.4
    6355.27  42778.9  76476.8  8627.93
    6359.09  42949.5  77165.1  8747.97
    6362.82  43212.6  77994.9  8894.56
    6366.65  43437.3  78756.2  9028.66
    6370.47  43628.4  79475.1  9160.3
    6374.31  43903.1  80330.4  9290.47
    6378.23  44116.4  81104.2  9399.17
    6382.07  44326.1  81870.6  9499.39
    6386.01  44547.4  82643.5  9606.14
    6389.95  44740.2  83372.9  9712.42
    6393.89  45008.5  84259.8  9839.24
    6397.84  45252.4  85080.2  9962.58
    6401.88  45442.8  85849.1  10068.4
    6405.84  45690.7  86710.5  10181.9
    6409.89  45890.1  87522.4  10291.8
    6413.95  46139.1  88398.9  10425.2
    6418.01  46352.6  89218.8  10548.2
    6422.08  46609.6  90115.3  10692.7
    6426.15  46815.1  90944.3  10816.8
    6430.32  47054.2  91841.8  10938.4
    6434.4  47289.8  92755.8  11048.4
    6438.58  47476.9  93568.3  11154.1
    6442.76  47710.6  94501.3  11280.2
    6446.95  47936.7  95447.8  11428.9
    6451.23  48185.4  96435.9  11588.2
    6455.43  48390.7  97319.4  11746.9
    6459.72  48617.4  98257.5  11906.2
    6463.93  48833.7  99186  12065
    6468.24  49045.5  100120  12209.3
    6472.55  49272.8  101051  12352.2
    6476.95  49512.7  102042  12507.6
    6481.28  49702  102940  12659.5
    6485.61  49963.9  103975  12826.9
    6490.03  50174.4  104915  12980.9
    6494.46  50392.3  105867  13122.4
    6498.9  50609.8  106879  13265.5
    6503.34  50824.8  107857  13416
    6507.79  51044.4  108868  13578.1
    6512.34  51269.4  109902  13754.7
    6516.8  51434  110814  13915.9
    6521.35  51685.1  111906  14097.6
    6525.92  51905.8  112935  14270.8
    6530.49  52133.9  114014  14443.5
    6535.07  52347.6  115060  14613.8
    6539.65  52573.8  116134  14787.6
    6544.25  52678.6  116955  14923.9
    6548.94  52919.8  118073  15094.8
    6553.54  53067.6  119018  15244.2
    6558.24  53256.9  120054  15405.1
    6562.95  53495.8  121204  15583.5
    6567.67  53719.2  122298  15776.5
    6572.4  53970.1  123477  15967
    6577.22  54182.5  124587  16160
    6581.96  54322.4  125501  16329.5
    6586.79  54573.9  126723  16537.6
    6591.55  54795.9  127869  16733.3
    6596.4  54961.4  128889  16910.4
    6601.26  55164.5  129992  17106.1
    6606.12  55407.1  131230  17310.3
    6611.09  55590.2  132309  17490
    6615.97  55823.8  133534  17696.3
    6620.95  56058  134785  17902
    6625.85  56230.6  135852  18081.4
    6630.85  56400.8  136971  18282.2
    6635.85  56613.6  138183  18490.6
    6640.87  56816.8  139358  18704.5
    6645.89  56980.6  140486  18900.9
    6650.92  57155.9  141600  19109.9
    6655.96  57390.8  142914  19332.4
    6661.1  57550.1  144019  19543.4
    6666.15  57755  145246  19766
    6671.31  57878.4  146279  19960
    6676.47  58072.4  147490  20171.6
    6681.64  58238.8  148614  20374.8
    6686.82  58405.8  149809  20579.4
    6692.01  58430.4  150615  20739.6
    6697.3  58264.4  150979  20847.4
    6702.51  55711  145036  20058.6
    6707.72  60671.1  158743  22014.4
    6713.04  60231.7  158388  22014.7
    6718.37  60084.8  158790  22131.6
    6723.7  60159.5  159802  22329.9
    6729.05  60175.7  160662  22501.8
    6734.4  60124.4  161324  22655.3
    6739.77  60592.7  163487  23028.2
    6745.14  60627.5  164383  23213.7
    6750.61  59730.8  162806  23057.7
    6756  58895.6  161300  22908.2
    6761.5  60623  166901  23759.3
    6766.91  61535.9  170277  24304.9
    6772.42  60121.3  167252  23932
    6777.94  62003.2  173387  24881.7
    6783.48  62051.7  174379  25090.9
    6789.02  61995.6  175156  25278.6
    6794.57  61966.2  175950  25462.8
    6800.23  61600.2  175864  25514.6
    6805.8  59280.8  170117  24752.9
    6811.48  64331.8  185542  27066.8
    6817.07  63657.5  184568  26986.1
    6822.77  63548.6  185199  27160
    6828.47  63603.3  186310  27389.4
    6834.19  63678.5  187506  27630.4
    6839.92  63744.2  188688  27875.9
    6845.66  63896.4  190100  28148.9
    6851.4  64026.2  191490  28422.4
    6857.16  64114.5  192732  28684.5
    6863.03  64061.3  193602  28887
    6868.81  64192.7  195038  29180.2
    6874.7  64307.5  196363  29456.8
    6880.5  64442.9  197764  29739
    6886.41  64470.9  198866  29990.7
    6892.33  64532.3  200107  30254.9
    6898.26  64536.3  201163  30498.7
    6904.2  64672.8  202732  30805
    6910.15  64718.8  203919  31067.8
    6916.11  64828.4  205316  31367.2
    6922.09  64779.5  206233  31592.1
    6928.18  64868.1  207543  31895.5
    6934.17  64987.2  209000  32201.4
    6940.28  65087.9  210382  32500.9
    6946.3  65159.1  211670  32799.9
    6952.43  65239.8  213071  33114.4
    6958.57  65311  214417  33414.5
    6964.62  65405.8  215807  33722
    6970.78  65533.1  217302  34035.2
    6976.96  65597.9  218636  34340.8
    6983.15  65712.2  220098  34658
    6989.35  65798.1  221488  34974.7
    6995.66  65798.5  222653  35249.9
    7001.88  65887.4  224054  35563.7
    7008.12  65958.9  225426  35874
    7014.47  66057.8  226917  36200.8
    7020.72  66106.3  228226  36495.1
    7027.1  66121.3  229445  36792
    7033.38  66178.9  230779  37096.4
    7039.77  66333  232446  37464.4
    7046.18  66331.6  233646  37764.8
    7052.6  66400.7  235052  38081.8
    7059.04  66470.3  236503  38414.3
    7065.48  66445.5  237576  38687.3
    7071.94  66479.2  238884  38994.9
    7078.41  66556.5  240344  39336.1
    7084.9  66536.2  241442  39621.7
    7091.39  66568.5  242748  39937.8
    7097.9  66578.3  243989  40249.5
    7104.53  66608.6  245312  40573.8
    7111.06  66624.5  246583  40878.5