File: data/Cr/cro2_15K_003.xdi
# XDI/1.0
# Column.1: energy eV
# Column.2: i0
# Column.3: itrans
# Column.4: irefer
# Beamline.name: SSRL 2-3
# Beamline.notes: vert slits = 0.6mm
# Detector.I0: N2 15cm
# Detector.I1: N2 30cm
# Detector.I2: N2 15cm
# Element.edge: K
# Element.symbol: Cr
# Mono.d_spacing: 3.13550
# Mono.name: Si(111)
# Mono.notes: unfocused, detuned 75%, clockwise at E=5990eV
# Sample.formula: CrO2
# Sample.name: CrO2
# Sample.prep: powder on tape (4 layers)
# Sample.reference: Cr foil
# Sample.temperature: 15K
# Scan.start_time: 1997-04-18 13:47:10
# ///
#    Note: mono d_spacing is nominal!
#     exafs to K16
#     396  E XMU XMUR I0
#-------------
#   energy   i0   itrans  irefer
    5759.99  146751  9436.7  1196.3
    5769.98  146258  9578.7  1220.3
    5780.01  145525  9707.7  1245.3
    5790  144896  9847.7  1271.3
    5799.97  144101  9972.7  1295.3
    5810.03  143599  10119.7  1324.3
    5820  142915  10252.7  1348.3
    5830  142393  10401.7  1377.3
    5839.97  141703  10532.7  1404.3
    5849.98  141147  10677.7  1432.3
    5860.02  140585  10827.7  1463.3
    5870.02  139803  10955.7  1488.3
    5879.99  139050  11087.7  1514.3
    5890  138509  11236.7  1545.3
    5899.97  137763  11371.7  1573.3
    5909.98  137111  11510.7  1601.3
    5920.02  136512  11654.7  1631.3
    5930.03  135725  11779.7  1657.3
    5939.99  135028  11910.7  1683.3
    5950  134339  12044.7  1714.3
    5959.97  133819  12188.7  1742.3
    5969.97  131086  12129.7  1744.3
    5970.49  130991  12131.7  1744.3
    5971.01  130840  12126.7  1743.3
    5971.53  130986  12153.7  1748.3
    5971.97  130599  12122.7  1744.3
    5972.49  129888  12071.7  1735.3
    5973.01  128967  11991.7  1726.3
    5973.53  129541  12045.7  1732.3
    5973.98  130616  12154.7  1748.3
    5974.5  131373  12241.7  1762.3
    5975.02  131575  12262.7  1765.3
    5975.46  131406  12256.7  1764.3
    5975.98  131484  12275.7  1767.3
    5976.51  131389  12276.7  1770.3
    5977.03  131451  12291.7  1772.3
    5977.47  131574  12308.7  1774.3
    5977.99  131424  12309.7  1775.3
    5978.52  131400  12314.7  1776.3
    5979.04  131574  12337.7  1778.3
    5979.48  131620  12352.7  1782.3
    5980.01  131600  12358.7  1782.3
    5980.53  131456  12352.7  1782.3
    5980.97  131497  12368.7  1785.3
    5981.49  131452  12371.7  1785.3
    5982.02  131538  12393.7  1790.3
    5982.46  131593  12403.7  1790.3
    5982.99  131718  12428.7  1794.3
    5983.51  131331  12396.7  1789.3
    5984.03  131561  12429.7  1795.3
    5984.48  131485  12426.7  1793.3
    5985  131665  12461.7  1798.3
    5985.52  131672  12471.7  1799.3
    5985.97  131354  12451.7  1796.3
    5986.49  130019  12340.7  1779.3
    5987.02  126959  12069.7  1740.3
    5987.46  122032  11606.7  1671.3
    5987.99  116015  11032.7  1588.3
    5988.51  118405  11247.7  1617.3
    5989.03  122919  11693.7  1677.3
    5989.48  125450  11944.7  1707.3
    5990  127420  12140.7  1722.3
    5990.53  127219  12124.7  1695.3
    5990.98  127612  12165.7  1666.3
    5991.5  128014  12205.7  1622.3
    5992.02  128140  12208.7  1582.3
    5992.47  128262  12207.7  1553.3
    5992.99  128158  12191.7  1522.3
    5993.52  128260  12201.7  1500.3
    5993.97  128356  12211.7  1484.3
    5994.49  128364  12208.7  1465.3
    5995.02  128364  12201.7  1447.3
    5995.47  128294  12196.7  1435.3
    5995.99  128306  12198.7  1424.3
    5996.51  128139  12193.7  1422.3
    5996.96  128114  12205.7  1420.3
    5997.49  128205  12227.7  1422.3
    5998.01  128255  12242.7  1424.3
    5998.54  128144  12243.7  1418.3
    5998.99  128078  12235.7  1405.3
    5999.51  127936  12220.7  1383.3
    6000.04  128008  12212.7  1356.3
    6000.49  127830  12174.7  1326.3
    6001.01  127666  12115.7  1291.3
    6001.46  127299  12028.7  1260.3
    6001.99  126339  11864.7  1218.3
    6002.51  125888  11737.7  1183.3
    6002.96  126356  11712.7  1165.3
    6003.49  127552  11732.7  1150.3
    6004.02  128106  11682.7  1132.3
    6004.47  128156  11611.7  1114.3
    6004.99  128098  11529.7  1095.3
    6005.52  128027  11452.7  1076.3
    6005.97  127866  11378.7  1060.3
    6006.5  127863  11307.7  1045.3
    6007.02  127688  11209.7  1025.3
    6007.47  127639  11118.7  1009.3
    6008  127699  11012.7   990.3
    6008.53  127637  10888.7   969.3
    6008.98  127528  10772.7   950.3
    6009.5  127544  10635.7   930.3
    6010.03  127431  10483.7   905.299
    6010.94  127345  10276.5   875.064
    6011.84  127346  10194.7   861.358
    6012.82  127337  10167.5   870.18
    6013.8  127369  10188.8   894.534
    6014.78  127219  10239.6   921.415
    6015.76  127280  10324.9   946.826
    6016.81  127449  10444.8   963.765
    6017.8  127402  10514.1   967.235
    6018.93  127392  10570   962.232
    6019.99  127494  10630.4   955.761
    6021.12  127463  10712.3   954.817
    6022.18  127496  10794.7   958.403
    6023.39  127567  10854.6   968.518
    6024.52  127616  10873   975.162
    6025.73  127797  10870   983.336
    6026.87  127934  10861.4   981.038
    6028.16  128233  10867.4   972.27
    6029.37  128265  10875.9   962.031
    6030.58  128429  10945.9   964.322
    6031.87  128591  11060.4   968.141
    6033.16  128984  11210.4   978.49
    6034.53  128961  11321   985.366
    6035.82  129180  11441   995.774
    6037.19  129374  11561.6  1004.71
    6038.56  129653  11684.7  1012.18
    6040  129679  11782.3  1016.17
    6041.37  129912  11866.4  1017.7
    6042.82  130168  11934  1024.75
    6044.26  130279  11955.2  1031.33
    6045.71  130542  11975.8  1039.44
    6047.24  130804  11997  1043.08
    6048.76  131045  12032.7  1051.25
    6050.29  131275  12089.9  1060.95
    6051.82  131623  12161.6  1076.18
    6053.42  132058  12233.8  1096.94
    6054.95  132279  12270.5  1113.22
    6056.56  132485  12285.8  1128.04
    6058.24  132869  12301.5  1139.39
    6059.85  133156  12310.8  1148.26
    6061.53  133363  12313.6  1153.66
    6063.22  133776  12352.9  1162.6
    6064.91  133843  12360.7  1161.06
    6066.68  134131  12391  1155.05
    6068.36  134496  12428.9  1147.57
    6070.13  134931  12457.2  1137.62
    6071.9  135233  12481.1  1125.2
    6073.75  135612  12542.5  1121.31
    6075.52  136111  12644.4  1133.94
    6077.37  136426  12735.8  1154.11
    6079.22  136923  12846.7  1179.81
    6081.15  137210  12940.1  1206.03
    6083  137578  13028.1  1232.79
    6084.93  138063  13125.6  1258.07
    6086.87  138754  13236.5  1281.88
    6088.8  139102  13311  1286.22
    6090.81  139434  13383  1278.09
    6092.83  139945  13474.5  1258.49
    6094.84  140321  13556.6  1236.42
    6096.86  140764  13647.1  1218.88
    6098.88  141336  13758.2  1206.87
    6100.98  141895  13874.7  1200.39
    6103.07  142417  13983.8  1210.43
    6105.18  142740  14084.4  1233.01
    6107.28  143361  14192.6  1268.11
    6109.46  143820  14276.2  1305.75
    6111.64  144376  14358.3  1345.91
    6113.83  145079  14451  1378.6
    6116.01  145515  14539.1  1405.82
    6118.28  145990  14657.8  1425.57
    6120.47  146633  14797  1438.85
    6122.74  147220  14953.7  1448.66
    6125.01  147712  15093  1459
    6127.36  148570  15269.7  1477.87
    6129.64  148550  15346.9  1493.26
    6131.99  149294  15493.7  1520.19
    6134.35  150011  15630  1540.64
    6136.79  150713  15742.8  1558.63
    6139.15  151163  15822.1  1567.14
    6141.59  151630  15899.9  1574.18
    6144.04  152237  16002.2  1581.76
    6146.48  152786  16107.1  1587.86
    6148.93  153394  16208.4  1587.49
    6151.46  154262  16334.3  1590.65
    6153.99  154840  16422.7  1594.34
    6156.53  155510  16524.6  1603.55
    6159.06  156134  16648  1607.3
    6161.6  156654  16765.9  1605.58
    6164.22  157378  16913.4  1603.38
    6166.84  158020  17055.3  1603.72
    6169.47  158753  17202.8  1620.58
    6172.1  159291  17326.8  1649.98
    6174.81  159966  17477.3  1690.9
    6177.52  160666  17644.3  1730.35
    6180.23  161219  17802.8  1766.33
    6182.95  161020  17861.8  1791.84
    6185.67  162562  18128.4  1827.88
    6188.47  163532  18330.4  1857.45
    6191.27  163626  18424  1871.54
    6194.08  164618  18626.1  1896.17
    6196.89  164279  18669.7  1908.33
    6199.7  165410  18872.8  1937.01
    6202.6  166197  19033.5  1961.23
    6205.5  167250  19221.6  1985.97
    6208.4  167949  19375.3  2011.24
    6211.3  167610  19416.4  2029.04
    6214.21  168225  19585.1  2059.38
    6217.2  169126  19789.3  2088.24
    6220.2  169584  19938  2103.63
    6223.19  170455  20129.2  2115.54
    6226.19  171273  20327  2127.99
    6229.2  172302  20543.2  2138.97
    6232.28  173143  20741  2147.48
    6235.38  174166  20962.3  2153.51
    6238.47  176037  21260.1  2169.07
    6241.56  174067  21107.4  2143.17
    6244.75  175721  21382.2  2169.79
    6247.85  176915  21645.5  2196.95
    6251.04  178382  21935.4  2245.63
    6254.23  179154  22137.7  2292.84
    6257.43  178414  22125.6  2323.58
    6260.71  179155  22302  2369.85
    6263.91  180511  22559.9  2412.65
    6267.2  181732  22808.3  2449.97
    6270.49  182468  23012.3  2472.83
    6273.79  183525  23248.7  2501.22
    6277.17  184359  23449.7  2532.13
    6280.48  185292  23658.1  2562.58
    6283.86  186043  23858.1  2590.55
    6287.26  186883  24095.6  2620.05
    6290.65  187691  24330.6  2648.09
    6294.06  186685  24304.2  2649.65
    6297.54  188144  24613.2  2692.74
    6300.95  188747  24803.7  2727.35
    6304.45  189557  25023.8  2763.5
    6307.95  190280  25237.4  2794.18
    6311.54  191255  25492.5  2829.39
    6315.05  192104  25731.1  2856.13
    6318.56  193071  25975.2  2884.39
    6322.16  193403  26140.9  2894.19
    6325.77  194383  26396  2913.51
    6329.38  195049  26625.7  2941.37
    6333.07  195701  26847.8  2961.75
    6336.69  196456  27088.5  2991.66
    6340.4  197107  27306.7  3021.1
    6344.11  198019  27552.4  3058.07
    6347.83  198850  27803.7  3098.57
    6351.55  199449  28025.4  3137.6
    6355.27  200322  28292.7  3181.16
    6359.09  201142  28569.4  3227.24
    6362.82  201816  28813.7  3269.86
    6366.65  202563  29076.5  3321
    6370.47  203332  29332.8  3370.68
    6374.31  204576  29653.6  3418.88
    6378.23  205436  29929  3458.62
    6382.07  206260  30208.8  3495.88
    6386.01  206989  30468.2  3532.67
    6389.95  207984  30758.1  3572.99
    6393.89  208036  30910.5  3600.84
    6397.84  207460  30976.4  3615.22
    6401.88  208168  31239.8  3648.13
    6405.84  208989  31519.7  3685.57
    6409.89  210317  31885.2  3736.53
    6413.95  211272  32196.1  3780.03
    6418.01  211998  32462.6  3825.06
    6422.08  212840  32751.6  3870.61
    6426.15  213674  33045.1  3916.69
    6430.32  214488  33344.1  3958.31
    6434.4  214611  33534.6  3983.45
    6438.58  213820  33593.7  3991.12
    6442.76  214817  33922.2  4038.32
    6446.95  215451  34221.3  4087.05
    6451.23  216179  34534.9  4139.3
    6455.43  216729  34822  4191.1
    6459.72  217448  35127.6  4243.41
    6463.93  218244  35441.7  4295.26
    6468.24  218698  35698.3  4338.63
    6472.55  219306  35992.5  4385.54
    6476.95  219836  36274.2  4431.97
    6481.28  220402  36561.3  4479.93
    6485.61  221365  36914  4539.43
    6490.03  222068  37224.3  4589.45
    6494.46  222708  37521.9  4635
    6498.9  223313  37822.2  4682.08
    6503.34  223995  38147.9  4728.69
    6507.79  224876  38511.2  4787.83
    6512.34  226379  38993  4863.49
    6516.8  225172  38979.3  4881.69
    6521.35  227074  39532.1  4966.42
    6525.92  228096  39942.4  5034.67
    6530.49  227756  40100.2  5068.46
    6535.07  228981  40544.5  5136.77
    6539.65  229853  40915.4  5198.62
    6544.25  230377  41225.8  5242.99
    6548.94  230571  41504.6  5282.89
    6553.54  231017  41812  5334.32
    6558.24  231677  42159.9  5392.27
    6562.95  232018  42470.4  5444.76
    6567.67  230795  42475.3  5459.78
    6572.4  232166  42955.8  5537.33
    6577.22  233219  43387.7  5604.41
    6581.96  233149  43584.2  5649.01
    6586.79  233687  43935.2  5712.15
    6591.55  232193  43852.7  5719.81
    6596.4  232658  44185.7  5780.01
    6601.26  233488  44573.2  5848.73
    6606.12  233779  44869.3  5901.98
    6611.09  234448  45257.8  5969.76
    6615.97  234708  45569.9  6026.07
    6620.95  235264  45933.5  6087.91
    6625.85  235596  46250.6  6146.28
    6630.85  236038  46598.2  6208.18
    6635.85  236293  46907.4  6266.6
    6640.87  236838  47273  6334.56
    6645.89  237178  47604.1  6396.04
    6650.92  237798  47995.8  6468.06
    6655.96  238207  48343  6529.6
    6661.1  238712  48697.7  6595.68
    6666.15  239153  49042.9  6658.28
    6671.31  239181  49313.6  6708.41
    6676.47  239604  49674.8  6771.07
    6681.64  239365  49880.6  6819.26
    6686.82  239956  50281.8  6893.98
    6692.01  239269  50413.6  6920.23
    6697.3  237910  50420.9  6946
    6702.51  229969  49045.7  6776.31
    6707.72  257254  55135  7633.15
    6713.04  247132  53234.9  7386.51
    6718.37  245612  53200.2  7400.4
    6723.7  245725  53503.1  7462.83
    6729.05  245086  53662.4  7498.78
    6734.4  243739  53673.3  7523.26
    6739.77  246555  54550.7  7669.27
    6745.14  245214  54627.7  7702.82
    6750.61  240939  53911.1  7622.89
    6756  238863  53765  7625.48
    6761.5  247470  56088.5  7977.61
    6766.91  247698  56399.4  8041.27
    6772.42  242167  55438.9  7924.46
    6777.94  248052  57108.9  8184.17
    6783.48  247251  57242.4  8231.42
    6789.02  246623  57413.4  8280.19
    6794.57  245838  57551.9  8322.49
    6800.23  244156  57485  8336.32
    6805.8  235345  55698.6  8103.69
    6811.48  257807  61388.6  8946.57
    6817.07  252447  60461.3  8839
    6822.77  251698  60629.3  8881.95
    6828.47  251062  60801  8933.43
    6834.19  250510  61030.1  8986.43
    6839.92  250233  61288.8  9052.97
    6845.66  250409  61687.9  9133.04
    6851.4  250460  62041.6  9208.63
    6857.16  250599  62441.7  9285.75
    6863.03  250472  62765.5  9362.41
    6868.81  250674  63170.7  9443.59
    6874.7  251118  63649.4  9534.31
    6880.5  249816  63668.6  9565.54
    6886.41  249715  64018.4  9642.31
    6892.33  249916  64419.7  9727.61
    6898.26  250240  64855.4  9819.44
    6904.2  250373  65276.7  9911.8
    6910.15  250416  65660.5  9999.68
    6916.11  250526  66049.8  10087.1
    6922.09  250536  66423.7  10175
    6928.18  242935  64766  9940.52
    6934.17  242912  65129.9  10025.5
    6940.28  242979  65498.2  10118.1
    6946.3  242923  65863.1  10195.1
    6952.43  242961  66244.5  10275.7
    6958.57  242919  66602.4  10362.8
    6964.62  243077  67017.9  10455.5
    6970.78  243204  67421.8  10549.7
    6976.96  243137  67776.3  10631.4
    6983.15  243183  68176.3  10717.6
    6989.35  243236  68573.8  10805.4
    6995.66  243372  68985.7  10904.7
    7001.88  243645  69447.2  11002.5
    7008.12  243406  69769.2  11082.9
    7014.47  243374  70145.8  11169.7
    7020.72  243515  70557.8  11262.2
    7027.1  243477  70940.4  11352.1
    7033.38  243451  71310.5  11437.6
    7039.77  243553  71737.1  11536.6
    7046.18  243547  72134.2  11629.1
    7052.6  243595  72542.8  11728.1
    7059.04  243497  72897.9  11814.7
    7065.48  243634  73350.6  11918.9
    7071.94  243420  73692.8  12007.5
    7078.41  243587  74140.5  12112.7
    7084.9  243033  74373.6  12177.4
    7091.39  242888  74729.3  12258.6
    7097.9  242866  75135.6  12359.4
    7104.53  242726  75501.3  12451.7
    7111.06  242868  75957.5  12552.5