File: data/Cr/cro2_15K_001.xdi
# XDI/1.0
# Column.1: energy eV
# Column.2: i0
# Column.3: itrans
# Column.4: irefer
# Beamline.name: SSRL 2-3
# Beamline.notes: vert slits = 0.6mm
# Detector.I0: N2 15cm
# Detector.I1: N2 30cm
# Detector.I2: N2 15cm
# Element.edge: K
# Element.symbol: Cr
# Mono.d_spacing: 3.13550
# Mono.name: Si(111)
# Mono.notes: unfocused, detuned 75%, clockwise at E=5990eV
# Sample.formula: CrO2
# Sample.name: CrO2
# Sample.prep: powder on tape (4 layers)
# Sample.reference: Cr foil
# Sample.temperature: 15K
# Scan.start_time: 1997-04-18 13:47:10
# ///
#    Note: mono d_spacing is nominal!
#     exafs to K16
#     396  E XMU XMUR I0
#-------------
#   energy   i0   itrans  irefer
    5759.99  150202  9658.7  1224.3
    5769.98  149690  9803.7  1249.3
    5780.01  149063  9941.7  1275.3
    5790  147825  10040.7  1296.3
    5799.97  147213  10183.7  1322.3
    5810.03  144466  10172.7  1330.3
    5820  143925  10319.7  1359.3
    5830  143220  10458.7  1384.3
    5839.97  142704  10607.7  1412.3
    5849.98  142040  10745.7  1438.3
    5860.02  141371  10891.7  1468.3
    5870.02  140719  11031.7  1496.3
    5879.99  140460  11203.7  1528.3
    5890  139780  11341.7  1556.3
    5899.97  139402  11506.7  1588.3
    5909.98  138809  11650.7  1616.3
    5920.02  138057  11783.7  1646.3
    5930.03  137294  11915.7  1676.3
    5939.99  136622  12053.7  1704.3
    5950  136221  12215.7  1735.3
    5959.97  135637  12356.7  1765.3
    5969.97  134850  12485.7  1792.3
    5970.49  134482  12460.7  1788.3
    5971.01  134634  12483.7  1794.3
    5971.53  134413  12477.7  1792.3
    5971.97  134387  12483.7  1794.3
    5972.49  133949  12454.7  1789.3
    5973.01  133023  12370.7  1777.3
    5973.53  133698  12435.7  1788.3
    5973.98  134403  12513.7  1799.3
    5974.5  135228  12604.7  1811.3
    5975.02  135583  12650.7  1819.3
    5975.46  135454  12650.7  1819.3
    5975.98  135679  12676.7  1823.3
    5976.51  135731  12691.7  1825.3
    5977.03  133793  12516.7  1801.3
    5977.47  133822  12530.7  1805.3
    5977.99  134015  12554.7  1807.3
    5978.52  133939  12557.7  1808.3
    5979.04  133830  12558.7  1807.3
    5979.48  133854  12568.7  1809.3
    5980.01  133958  12591.7  1811.3
    5980.53  134032  12602.7  1815.3
    5980.97  134043  12614.7  1819.3
    5981.49  134002  12626.7  1819.3
    5982.02  133939  12630.7  1819.3
    5982.46  134419  12680.7  1828.3
    5982.99  134606  12712.7  1830.3
    5983.51  134636  12723.7  1833.3
    5984.03  134880  12755.7  1836.3
    5984.48  134907  12767.7  1839.3
    5985  134890  12774.7  1841.3
    5985.52  134917  12785.7  1840.3
    5985.97  134774  12780.7  1841.3
    5986.49  133446  12676.7  1823.3
    5987.02  130162  12380.7  1779.3
    5987.46  124918  11893.7  1707.3
    5987.99  118913  11310.7  1621.3
    5988.51  119739  11372.7  1631.3
    5989.03  123466  11738.7  1677.3
    5989.48  125893  11989.7  1707.3
    5990  127835  12185.7  1723.3
    5990.53  128730  12277.7  1709.3
    5990.98  129177  12328.7  1679.3
    5991.5  129422  12344.7  1631.3
    5992.02  129784  12367.7  1593.3
    5992.47  129721  12354.7  1564.3
    5992.99  129771  12361.7  1537.3
    5993.52  129806  12355.7  1513.3
    5993.97  129799  12357.7  1492.3
    5994.49  129932  12365.7  1476.3
    5995.02  129939  12365.7  1459.3
    5995.47  129975  12360.7  1449.3
    5995.99  129932  12360.7  1440.3
    5996.51  129959  12371.7  1437.3
    5996.96  130006  12390.7  1438.3
    5997.49  130016  12404.7  1441.3
    5998.01  130122  12429.7  1443.3
    5998.54  130404  12460.7  1439.3
    5998.99  130533  12478.7  1429.3
    5999.51  130545  12478.7  1407.3
    6000.04  130531  12460.7  1379.3
    6000.49  130422  12426.7  1349.3
    6001.01  130230  12362.7  1313.3
    6001.46  129873  12275.7  1280.3
    6001.99  128936  12109.7  1239.3
    6002.51  128406  11977.7  1203.3
    6002.96  129079  11969.7  1186.3
    6003.49  130280  11994.7  1172.3
    6004.02  130770  11935.7  1152.3
    6004.47  130732  11853.7  1131.3
    6004.99  130784  11771.7  1115.3
    6005.52  130784  11701.7  1095.3
    6005.97  130805  11647.7  1082.3
    6006.5  130879  11580.7  1066.3
    6007.02  130977  11502.7  1049.3
    6007.47  130791  11402.7  1031.3
    6008  130947  11302.7  1012.3
    6008.53  131064  11191.7   991.3
    6008.98  130969  11068.7   974.3
    6009.5  131353  10959.7   955.3
    6010.03  131182  10796.7   934.3
    6010.94  131033  10582.5   899.064
    6011.84  130917  10484.7   884.358
    6012.82  131002  10462.5   893.181
    6013.8  131055  10492.8   918.534
    6014.78  131026  10546.6   945.415
    6015.76  131099  10635.9   970.826
    6016.81  130947  10730.8   984.765
    6017.8  131017  10813.1   990.233
    6018.93  131019  10873   984.234
    6019.99  131231  10947.4   978.76
    6021.12  131327  11044.3   977.817
    6022.18  131946  11178.7   987.402
    6023.39  131866  11225.6   995.518
    6024.52  131834  11234  1004.16
    6025.73  132008  11233  1007.33
    6026.87  132351  11239.4  1007.04
    6028.16  132515  11229.4   998.27
    6029.37  132636  11246.9   989.032
    6030.58  132856  11321.9   990.322
    6031.87  132852  11427.4   995.14
    6033.16  132600  11525.5   999.49
    6034.53  132885  11663  1010.37
    6035.82  133346  11809  1023.77
    6037.19  133405  11920.6  1032.71
    6038.56  133571  12038.7  1039.18
    6040  133824  12155.3  1044.17
    6041.37  133997  12244.4  1048.69
    6042.82  133929  12275  1049.75
    6044.26  134307  12318.2  1058.33
    6045.71  134706  12352.8  1068.44
    6047.24  135024  12373  1075.08
    6048.76  135246  12419.7  1085.25
    6050.29  135698  12493.9  1096.95
    6051.82  135885  12549.6  1112.18
    6053.42  136177  12608.8  1129.94
    6054.95  136347  12646.5  1146.22
    6056.56  136548  12660.8  1162.04
    6058.24  136736  12666.5  1171.39
    6059.85  137049  12673.8  1180.26
    6061.53  137317  12677.6  1188.66
    6063.22  137409  12681.9  1191.6
    6064.91  137664  12708.7  1194.06
    6066.68  138136  12757  1190.05
    6068.36  138453  12789.9  1182.57
    6070.13  138944  12822.2  1169.62
    6071.9  136584  12600.1  1135.2
    6073.75  136053  12574.5  1123.31
    6075.52  136442  12660.4  1132.94
    6077.37  136944  12772.8  1155.11
    6079.22  137412  12883.7  1180.81
    6081.15  137777  12979.1  1208.03
    6083  138118  13067.1  1233.79
    6084.93  138524  13155.5  1261.07
    6086.87  139023  13243.5  1279.88
    6088.8  139461  13331  1287.22
    6090.81  140021  13424  1279.09
    6092.83  140379  13500.5  1262.49
    6094.84  140968  13604.6  1241.42
    6096.86  141489  13699.1  1222.88
    6098.88  142053  13807.2  1208.87
    6100.98  142373  13900.8  1203.39
    6103.07  143084  14031.8  1214.43
    6105.18  143471  14136.4  1237.01
    6107.28  144034  14245.6  1271.11
    6109.46  144471  14320.2  1308.75
    6111.64  145182  14415.3  1349.91
    6113.83  145896  14522  1385.6
    6116.01  146504  14623.1  1412.82
    6118.28  146931  14736.8  1429.57
    6120.47  147802  14908  1447.85
    6122.74  148389  15058.7  1457.66
    6125.01  148874  15202.9  1470
    6127.36  149476  15358.7  1485.87
    6129.64  149745  15470.9  1504.26
    6131.99  150494  15612.7  1530.19
    6134.35  151079  15732  1550.64
    6136.79  151681  15839.8  1566.63
    6139.15  152369  15949.1  1579.14
    6141.59  153034  16046.9  1586.19
    6144.04  153943  16179.2  1595.76
    6146.48  154777  16309.1  1604.86
    6148.93  155365  16416.4  1605.49
    6151.46  156451  16561.3  1613.65
    6153.99  157167  16662.7  1619.34
    6156.53  157867  16771.6  1626.55
    6159.06  158705  16915  1632.3
    6161.6  159572  17074.9  1634.58
    6164.22  160042  17192.4  1631.38
    6166.84  160780  17344.3  1632.72
    6169.47  161547  17493.8  1650.58
    6172.1  162395  17653.8  1681.98
    6174.81  162983  17799.3  1719.9
    6177.52  163750  17966.3  1759.35
    6180.23  164530  18150.8  1798.33
    6182.95  165476  18344.8  1836.84
    6185.67  166569  18564.4  1872.88
    6188.47  167165  18721.4  1895.45
    6191.27  167574  18856  1915.54
    6194.08  168341  19039.1  1940.17
    6196.89  169206  19214.7  1965.33
    6199.7  169963  19383.8  1988.01
    6202.6  170726  19539.4  2009.23
    6205.5  171696  19713.6  2035.97
    6208.4  172271  19862.3  2061.24
    6211.3  173094  20051.4  2091.04
    6214.21  174299  20285.1  2127.37
    6217.2  173846  20336.3  2141.24
    6220.2  174668  20522  2159.62
    6223.19  175378  20702.2  2173.54
    6226.19  176172  20898  2180.99
    6229.2  176973  21091.2  2190.97
    6232.28  177680  21286  2196.48
    6235.38  178058  21421.3  2193.51
    6238.47  179919  21725.1  2214.08
    6241.56  178170  21588.4  2192.17
    6244.75  180100  21916.2  2219.79
    6247.85  181522  22196.5  2254.95
    6251.04  183044  22499.4  2303.63
    6254.23  183751  22694.8  2352.84
    6257.43  184515  22879.6  2406.58
    6260.71  185286  23066  2454.85
    6263.91  186301  23280.9  2491.64
    6267.2  187120  23483.3  2522.97
    6270.49  187864  23692.3  2549.83
    6273.79  188725  23916.7  2577.22
    6277.17  188071  23928.7  2590.13
    6280.48  189220  24168.1  2622.58
    6283.86  188168  24131.1  2625.55
    6287.26  186392  24024.6  2616.05
    6290.65  187295  24261.6  2646.09
    6294.06  187974  24461.2  2673.65
    6297.54  188840  24699.2  2706.74
    6300.95  189576  24901.7  2742.36
    6304.45  190188  25095.8  2774.51
    6307.95  190775  25296.4  2804.18
    6311.54  191707  25539.5  2836.39
    6315.05  192539  25773.1  2863.13
    6318.56  193573  26030.2  2886.39
    6322.16  194360  26259.8  2903.19
    6325.77  194964  26477  2919.51
    6329.38  195776  26715.7  2946.37
    6333.07  196493  26952.8  2974.75
    6336.69  197358  27201.5  3004.66
    6340.4  198167  27439.7  3040.1
    6344.11  198991  27682.4  3074.07
    6347.83  199796  27923.7  3115.57
    6351.55  200738  28194.4  3159.6
    6355.27  201599  28463.7  3202.16
    6359.09  202436  28746.4  3249.24
    6362.82  203212  29002.7  3297.86
    6366.65  203986  29265.5  3347.01
    6370.47  204565  29494.8  3388.68
    6374.31  205459  29776.6  3432.88
    6378.23  206114  30016  3469.62
    6382.07  206783  30271.8  3505.88
    6386.01  206814  30427.2  3527.67
    6389.95  205720  30401.1  3531.99
    6393.89  205634  30526.5  3557.84
    6397.84  205425  30658.4  3579.22
    6401.88  205462  30815.8  3605.13
    6405.84  205742  31017.7  3629.56
    6409.89  206147  31246.2  3663.53
    6413.95  206871  31510.1  3703.03
    6418.01  207332  31747.6  3740.06
    6422.08  207738  31975.6  3780.61
    6426.15  208445  32251.1  3821.69
    6430.32  209137  32519.1  3858.31
    6434.4  209538  32746.6  3888.44
    6438.58  209926  32994.7  3917.12
    6442.76  210280  33234.2  3954.32
    6446.95  210930  33526.3  3999.05
    6451.23  211586  33822.9  4050.31
    6455.43  211808  34041  4090.1
    6459.72  212334  34323.6  4140.41
    6463.93  213282  34643.7  4192.26
    6468.24  213351  34846.3  4228.63
    6472.55  214289  35192.5  4284.54
    6476.95  214719  35444.2  4326.97
    6481.28  214996  35679.3  4365.93
    6485.61  216074  36046  4425.43
    6490.03  216250  36243.2  4467.45
    6494.46  216806  36537  4509
    6498.9  217352  36821.2  4550.08
    6503.34  217816  37093.9  4593.69
    6507.79  218519  37430.2  4648.83
    6512.34  218654  37660  4694.5
    6516.8  219875  38077.3  4760.69
    6521.35  220510  38402.1  4816.42
    6525.92  220946  38698.4  4872.67
    6530.49  221494  38994.2  4924.46
    6535.07  221997  39303.5  4970.77
    6539.65  222957  39701.4  5031.62
    6544.25  223611  40034.7  5081.98
    6548.94  223601  40257.6  5117.89
    6553.54  223963  40548  5163.32
    6558.24  224558  40896.9  5220.27
    6562.95  224997  41202.3  5270.76
    6567.67  225850  41586.3  5334.78
    6572.4  226374  41891.8  5388.33
    6577.22  227642  42361.7  5465.41
    6581.96  228115  42664.2  5519.02
    6586.79  228821  43036.2  5588.15
    6591.55  229519  43390.7  5649.82
    6596.4  230108  43735.7  5710
    6601.26  230967  44125.2  5784.73
    6606.12  231833  44535.3  5850.98
    6611.09  232399  44897.9  5911.76
    6615.97  232979  45255.9  5980.07
    6620.95  233602  45649.5  6041.91
    6625.85  234493  46074.6  6111.28
    6630.85  234908  46412.2  6172.18
    6635.85  235204  46720.3  6232.6
    6640.87  236094  47156  6308.56
    6645.89  237212  47646.1  6393.04
    6650.92  237545  47974.8  6448.07
    6655.96  237660  48259  6506.61
    6661.1  238507  48671.7  6584.68
    6666.15  238780  48991.9  6641.28
    6671.31  239058  49321.6  6702.41
    6676.47  239074  49591.8  6758.07
    6681.64  239245  49888.6  6809.26
    6686.82  239680  50255.9  6876.98
    6692.01  239122  50416.6  6912.23
    6697.3  236134  50066.9  6880.01
    6702.51  227888  48632.7  6698.31
    6707.72  255796  54861.1  7573.15
    6713.04  244071  52602.9  7281.51
    6718.37  242751  52595.2  7299.41
    6723.7  242383  52794.1  7342.83
    6729.05  242434  53107.5  7400.79
    6734.4  242171  53344.3  7454.27
    6739.77  245214  54257.7  7602.27
    6745.14  243175  54173.6  7612.82
    6750.61  239153  53523.1  7535.89
    6756  237262  53404  7542.48
    6761.5  246868  55944.5  7931.62
    6766.91  248569  56613.4  8050.27
    6772.42  243150  55678.9  7941.46
    6777.94  250117  57613.9  8238.17
    6783.48  249622  57827.4  8294.42
    6789.02  249886  58222.5  8370.19
    6794.57  250448  58691.9  8463.49
    6800.23  248439  58540  8461.32
    6805.8  237108  56140.6  8136.69
    6811.48  259930  61913.6  8993.58
    6817.07  255078  61111.2  8907
    6822.77  254203  61250.4  8946.95
    6828.47  253404  61411.9  8992.42
    6834.19  253744  61852.1  9078.44
    6839.92  253893  62236.8  9163.97
    6845.66  254134  62638.9  9245.03
    6851.4  255034  63209.5  9343.62
    6857.16  256400  63922.8  9470.76
    6863.03  257299  64509.4  9584.41
    6868.81  252561  63661.7  9480.59
    6874.7  253448  64257.4  9597.3
    6880.5  253949  64731.6  9700.54
    6886.41  254107  65138.4  9786.32
    6892.33  253994  65481.6  9867.61
    6898.26  253814  65802.4  9943.45
    6904.2  254453  66344.7  10049.8
    6910.15  254537  66749.5  10140.7
    6916.11  254629  67145.8  10227.1
    6922.09  254252  67415.7  10301.1
    6928.18  254527  67876  10401.5
    6934.17  254438  68246.9  10491.5
    6940.28  254812  68727.2  10592.1
    6946.3  255104  69181.2  10692.1
    6952.43  255299  69637.5  10794.7
    6958.57  255840  70177.5  10898.8
    6964.62  256017  70630.9  10999.5
    6970.78  256629  71196.8  11114.7
    6976.96  256528  71551.3  11203.4
    6983.15  256485  71945.2  11290.6
    6989.35  256596  72371.7  11389.4
    6995.66  256836  72836.7  11486.7
    7001.88  257231  73364.2  11602.5
    7008.12  258896  74258.3  11772.8
    7014.47  259811  74925.8  11919.7
    7020.72  260575  75551.8  12053.1
    7027.1  260280  75891.4  12127.1
    7033.38  260159  76255.5  12218.6
    7039.77  260423  76738.1  12327.6
    7046.18  260467  77184.2  12433.1
    7052.6  260495  77618.8  12538.2
    7059.04  260359  77992.9  12636.7
    7065.48  260409  78441.6  12741.9
    7071.94  260268  78841.7  12836.5
    7078.41  260317  79277.4  12941.7
    7084.9  259940  79594.6  13029.4
    7091.39  259790  79973.3  13123.6
    7097.9  259813  80410.6  13234.4
    7104.53  259984  80890.2  13335.7
    7111.06  259706  81231.5  13426.5