File: data/Cr/cro2_15K_002.xdi
# XDI/1.0
# Column.1: energy eV
# Column.2: i0
# Column.3: itrans
# Column.4: irefer
# Beamline.name: SSRL 2-3
# Beamline.notes: vert slits = 0.6mm
# Detector.I0: N2 15cm
# Detector.I1: N2 30cm
# Detector.I2: N2 15cm
# Element.edge: K
# Element.symbol: Cr
# Mono.d_spacing: 3.13550
# Mono.name: Si(111)
# Mono.notes: unfocused, detuned 75%, clockwise at E=5990eV
# Sample.formula: CrO2
# Sample.name: CrO2
# Sample.prep: powder on tape (4 layers)
# Sample.reference: Cr foil
# Sample.temperature: 15K
# Scan.start_time: 1997-04-18 13:47:10
# ///
#    Note: mono d_spacing is nominal!
#     exafs to K16
#     396  E XMU XMUR I0
#-------------
#   energy   i0   itrans  irefer
    5759.99  138774  8919.7  1128.3
    5769.98  138218  9051.7  1152.3
    5780.01  137737  9186.7  1178.3
    5790  137162  9312.7  1201.3
    5799.97  136451  9436.7  1223.3
    5810.03  136094  9584.7  1249.3
    5820  135386  9707.7  1274.3
    5830  134863  9844.7  1301.3
    5839.97  134144  9966.7  1326.3
    5849.98  133622  10103.7  1353.3
    5860.02  132992  10236.7  1379.3
    5870.02  132334  10370.7  1404.3
    5879.99  131746  10499.7  1431.3
    5890  131137  10637.7  1458.3
    5899.97  130577  10769.7  1486.3
    5909.98  129803  10889.7  1510.3
    5920.02  129168  11020.7  1539.3
    5930.03  128423  11144.7  1563.3
    5939.99  127702  11258.7  1589.3
    5950  127088  11388.7  1615.3
    5959.97  126314  11499.7  1640.3
    5969.97  125566  11617.7  1666.3
    5970.49  125523  11622.7  1666.3
    5971.01  125415  11624.7  1667.3
    5971.53  125235  11615.7  1667.3
    5971.97  124876  11592.7  1663.3
    5972.49  124149  11535.7  1656.3
    5973.01  123428  11479.7  1648.3
    5973.53  123904  11519.7  1655.3
    5973.98  124952  11626.7  1672.3
    5974.5  125694  11702.7  1682.3
    5975.02  125880  11735.7  1688.3
    5975.46  125915  11742.7  1690.3
    5975.98  125806  11743.7  1689.3
    5976.51  125923  11765.7  1691.3
    5977.03  125957  11775.7  1693.3
    5977.47  125879  11777.7  1693.3
    5977.99  126058  11801.7  1697.3
    5978.52  126053  11815.7  1699.3
    5979.04  126088  11827.7  1700.3
    5979.48  125984  11824.7  1699.3
    5980.01  126040  11837.7  1702.3
    5980.53  125901  11833.7  1702.3
    5980.97  125946  11845.7  1704.3
    5981.49  125907  11851.7  1705.3
    5982.02  125952  11868.7  1707.3
    5982.46  126037  11880.7  1710.3
    5982.99  125976  11888.7  1711.3
    5983.51  126420  11935.7  1716.3
    5984.03  125792  11884.7  1712.3
    5984.48  125674  11879.7  1710.3
    5985  125861  11905.7  1713.3
    5985.52  126178  11946.7  1716.3
    5985.97  125246  11860.7  1706.3
    5986.49  124430  11799.7  1697.3
    5987.02  121351  11524.7  1656.3
    5987.46  116903  11110.7  1595.3
    5987.99  110989  10546.7  1515.3
    5988.51  112726  10697.7  1533.3
    5989.03  116894  11112.7  1587.3
    5989.48  119425  11363.7  1620.3
    5990  121412  11564.7  1637.3
    5990.53  122433  11670.7  1628.3
    5990.98  122974  11721.7  1605.3
    5991.5  123219  11743.7  1559.3
    5992.02  123198  11735.7  1516.3
    5992.47  123441  11753.7  1492.3
    5992.99  123523  11753.7  1466.3
    5993.52  123330  11731.7  1438.3
    5993.97  123516  11748.7  1425.3
    5994.49  123504  11739.7  1404.3
    5995.02  123506  11739.7  1388.3
    5995.47  123492  11735.7  1380.3
    5995.99  123542  11743.7  1371.3
    5996.51  123374  11738.7  1365.3
    5996.96  123340  11748.7  1365.3
    5997.49  123518  11779.7  1369.3
    5998.01  123231  11762.7  1366.3
    5998.54  123053  11749.7  1359.3
    5998.99  123115  11759.7  1350.3
    5999.51  123097  11755.7  1328.3
    6000.04  122964  11728.7  1300.3
    6000.49  122756  11686.7  1273.3
    6001.01  122851  11655.7  1243.3
    6001.46  122309  11557.7  1209.3
    6001.99  121547  11411.7  1172.3
    6002.51  120925  11271.7  1137.3
    6002.96  121751  11284.7  1122.3
    6003.49  122935  11308.7  1109.3
    6004.02  123277  11252.7  1090.3
    6004.47  123312  11174.7  1071.3
    6004.99  123261  11090.7  1052.3
    6005.52  123139  11013.7  1033.3
    6005.97  122854  10934.7  1017.3
    6006.5  122875  10867.7  1003.3
    6007.02  122761  10772.7   986.299
    6007.47  122819  10699.7   970.3
    6008  122710  10584.7   950.3
    6008.53  122657  10465.7   931.3
    6008.98  122751  10372.7   916.3
    6009.5  122912  10250.7   895.3
    6010.03  122784  10102.7   873.3
    6010.94  122552  9892.46   841.064
    6011.84  122551  9806.73   827.359
    6012.82  122594  9789.51   837.18
    6013.8  122609  9806.81   860.534
    6014.78  122460  9851.62   886.415
    6015.76  122357  9926.95   908.827
    6016.81  122413  10025.8   921.765
    6017.8  122524  10108.1   928.234
    6018.93  122672  10175   922.233
    6019.99  122766  10233.4   919.76
    6021.12  122702  10311.3   915.817
    6022.18  122762  10393.7   922.402
    6023.39  122766  10447.6   931.518
    6024.52  122894  10464   938.162
    6025.73  123013  10460   942.335
    6026.87  122935  10433.4   940.038
    6028.16  123210  10434.4   932.27
    6029.37  123357  10452.9   925.03
    6030.58  123520  10519.9   926.32
    6031.87  123657  10629.4   931.142
    6033.16  123759  10748.4   938.489
    6034.53  123868  10865   948.366
    6035.82  123967  10974   956.774
    6037.19  124250  11092.6   966.712
    6038.56  124448  11203.7   974.177
    6040  124623  11315.3   979.17
    6041.37  124756  11384.4   980.695
    6042.82  124934  11445   986.748
    6044.26  125193  11481.2   995.332
    6045.71  125337  11485.8   998.442
    6047.24  125648  11512  1005.08
    6048.76  125912  11552.7  1013.25
    6050.29  126174  11604.9  1023.95
    6051.82  126238  11649.6  1035.18
    6053.42  126482  11700.8  1051.94
    6054.95  126649  11727.5  1068.23
    6056.56  127032  11766.8  1082.04
    6058.24  127339  11778.5  1094.39
    6059.85  127525  11778.8  1101.26
    6061.53  127622  11768.6  1108.66
    6063.22  127727  11776.9  1111.6
    6064.91  128035  11813.7  1113.06
    6066.68  128381  11849  1110.05
    6068.36  128776  11881.9  1102.57
    6070.13  129168  11914.2  1090.62
    6071.9  129516  11940.1  1078.2
    6073.75  129781  11990.5  1072.31
    6075.52  130236  12084.4  1083.94
    6077.37  130530  12169.8  1104.11
    6079.22  130785  12260.7  1125.81
    6081.15  131195  12357.1  1152.03
    6083  131589  12445.1  1179.79
    6084.93  132024  12536.6  1205.07
    6086.87  132485  12625.5  1223.88
    6088.8  132908  12710  1231.22
    6090.81  133232  12777  1219.09
    6092.83  133607  12851.5  1199.49
    6094.84  134092  12940.6  1181.42
    6096.86  134513  13029.1  1165.88
    6098.88  135003  13122.2  1151.87
    6100.98  135363  13216.8  1145.39
    6103.07  135934  13336.8  1154.43
    6105.18  136399  13444.4  1177.01
    6107.28  136820  13537.6  1210.11
    6109.46  137405  13627.2  1245.75
    6111.64  137865  13697.3  1281.91
    6113.83  138432  13776  1315.6
    6116.01  139059  13891.2  1340.82
    6118.28  139418  13983.8  1358.57
    6120.47  140000  14122  1370.85
    6122.74  140517  14262.7  1378.66
    6125.01  141031  14407  1390
    6127.36  141494  14542.7  1404.87
    6129.64  141931  14662.9  1426.26
    6131.99  142609  14789.7  1447.19
    6134.35  142925  14881  1465.65
    6136.79  143485  14973.8  1481.63
    6139.15  144046  15064.1  1491.14
    6141.59  144654  15165.9  1498.18
    6144.04  145251  15264.2  1504.76
    6146.48  145743  15361.1  1509.86
    6148.93  146292  15449.4  1511.49
    6151.46  146849  15538.3  1510.65
    6153.99  147490  15635.7  1514.34
    6156.53  148084  15729.6  1522.55
    6159.06  148674  15848  1525.3
    6161.6  149619  16009.9  1529.58
    6164.22  150100  16131.4  1523.38
    6166.84  150565  16250.3  1525.72
    6169.47  151504  16413.8  1543.58
    6172.1  152250  16554.8  1574.97
    6174.81  152970  16710.3  1612.9
    6177.52  153723  16874.3  1651.35
    6180.23  154243  17021.8  1687.33
    6182.95  154584  17140.8  1716.84
    6185.67  155352  17315.4  1746.88
    6188.47  155987  17473.4  1771.45
    6191.27  156923  17664  1795.55
    6194.08  157465  17811.1  1814.17
    6196.89  158214  17972.7  1838.33
    6199.7  158869  18117.8  1859.01
    6202.6  159654  18274.4  1881.23
    6205.5  160356  18421.6  1902.97
    6208.4  160979  18560.3  1928.24
    6211.3  161645  18720.4  1954.04
    6214.21  162466  18908.1  1983.38
    6217.2  163179  19076.3  2010.24
    6220.2  163707  19224  2024.63
    6223.19  164425  19402.3  2036.54
    6226.19  165201  19587  2048.99
    6229.2  165831  19758.2  2052.97
    6232.28  166576  19939  2060.48
    6235.38  167245  20104.3  2062.51
    6238.47  169060  20400.1  2082.08
    6241.56  167241  20259.4  2055.17
    6244.75  168750  20520.2  2080.79
    6247.85  170340  20822.5  2114.95
    6251.04  171644  21093.4  2159.63
    6254.23  172369  21275.7  2203.84
    6257.43  173225  21471.6  2255.58
    6260.71  174006  21652  2301.85
    6263.91  174669  21817.9  2334.65
    6267.2  175461  22020.3  2364.98
    6270.49  176057  22204.3  2384.83
    6273.79  176927  22409.7  2415.22
    6277.17  177782  22613.7  2445.13
    6280.48  178503  22791.1  2471.58
    6283.86  179182  22980.1  2497.55
    6287.26  180139  23217.6  2529.05
    6290.65  181103  23460.6  2559.09
    6294.06  182135  23704.1  2589.65
    6297.54  183038  23934.2  2623.74
    6300.95  183866  24152.7  2659.36
    6304.45  184686  24376.8  2694.51
    6307.95  185759  24638.4  2730.19
    6311.54  186557  24862.5  2759.39
    6315.05  186839  25017.1  2782.13
    6318.56  187619  25237.2  2801.39
    6322.16  188348  25456.8  2819.19
    6325.77  189255  25705  2841.52
    6329.38  189784  25903.7  2863.37
    6333.07  190564  26141.8  2890.75
    6336.69  191309  26375.5  2917.66
    6340.4  191774  26554.7  2943.1
    6344.11  192684  26800.4  2979.07
    6347.83  193455  27035.7  3016.57
    6351.55  193992  27252.4  3054.6
    6355.27  194666  27491.7  3093.16
    6359.09  195291  27744.4  3136.24
    6362.82  195973  27980.7  3179.86
    6366.65  196986  28274.5  3237.01
    6370.47  197728  28511.8  3284.68
    6374.31  198620  28793.6  3325.88
    6378.23  198862  28981  3355.62
    6382.07  200192  29319.8  3400.88
    6386.01  200850  29562.2  3435.67
    6389.95  201612  29810.1  3470.99
    6393.89  202283  30045.5  3506.84
    6397.84  202811  30271.4  3540.22
    6401.88  203623  30545.8  3578.13
    6405.84  204395  30822.7  3616.57
    6409.89  205255  31111.2  3656.53
    6413.95  206238  31428.1  3698.03
    6418.01  207337  31741.6  3744.05
    6422.08  207949  32007.6  3787.61
    6426.15  208535  32249.1  3826.69
    6430.32  208903  32478.1  3858.3
    6434.4  209735  32780.6  3895.45
    6438.58  210462  33074.7  3932.12
    6442.76  211194  33368.2  3971.32
    6446.95  211584  33613.3  4011.05
    6451.23  212385  33942.9  4063.31
    6455.43  212955  34212  4113.1
    6459.72  213540  34488.6  4163.41
    6463.93  214203  34784.7  4214.26
    6468.24  214739  35061.4  4260.64
    6472.55  215528  35365.5  4305.54
    6476.95  216007  35642.2  4351.97
    6481.28  216681  35931.4  4402.94
    6485.61  216979  36177  4441.43
    6490.03  217639  36470.2  4494.45
    6494.46  218466  36807  4546
    6498.9  218910  37076.2  4588.08
    6503.34  218497  37190.9  4610.69
    6507.79  217874  37297.2  4634.83
    6512.34  218518  37623  4690.49
    6516.8  219506  37989.2  4751.69
    6521.35  220692  38412  4824.42
    6525.92  221969  38858.4  4896.68
    6530.49  222922  39230.2  4957.46
    6535.07  223517  39559.5  5010.77
    6539.65  223200  39716.4  5044.61
    6544.25  223061  39899.7  5078.98
    6548.94  223521  40206.6  5128.88
    6553.54  224501  40610  5188.31
    6558.24  225500  41026.9  5249.28
    6562.95  225910  41329.3  5301.77
    6567.67  226324  41624.3  5355.78
    6572.4  227077  41999.7  5425.33
    6577.22  227680  42335.7  5481.41
    6581.96  227785  42575.2  5527.01
    6586.79  228075  42850.2  5579.15
    6591.55  228408  43133.7  5627.82
    6596.4  228996  43473.7  5695.01
    6601.26  229570  43816.2  5753.73
    6606.12  229890  44114.3  5804.98
    6611.09  229518  44293.8  5839.76
    6615.97  230145  44653.9  5906.07
    6620.95  230768  45040.5  5965.91
    6625.85  231208  45373.6  6022.28
    6630.85  232137  45807.2  6099.17
    6635.85  231501  45929.3  6129.6
    6640.87  231746  46222  6189.56
    6645.89  232526  46644.1  6259.05
    6650.92  233327  47057.8  6330.06
    6655.96  233738  47408  6395.6
    6661.1  233903  47696.7  6452.67
    6666.15  234421  48049.9  6517.28
    6671.31  234529  48348.6  6580.41
    6676.47  233923  48485.8  6608.07
    6681.64  231336  48192.6  6582.26
    6686.82  231508  48489.8  6638.98
    6692.01  231195  48693.6  6682.23
    6697.3  230145  48760.9  6704
    6702.51  222014  47337.7  6526.31
    6707.72  248881  53321.1  7368.15
    6713.04  238959  51462.9  7125.51
    6718.37  237552  51438.2  7139.41
    6723.7  237107  51612.1  7183.83
    6729.05  236728  51824.4  7230.78
    6734.4  235944  51950.3  7272.27
    6739.77  238697  52807.8  7405.28
    6745.14  237082  52793.7  7424.82
    6750.61  233028  52115.1  7352.89
    6756  231114  52005  7356.48
    6761.5  239384  54246.5  7694.62
    6766.91  240820  54836.4  7797.27
    6772.42  235447  53907.9  7686.46
    6777.94  241592  55611.9  7959.17
    6783.48  240236  55603.4  7982.42
    6789.02  240067  55889.4  8038.19
    6794.57  240180  56230  8110.49
    6800.23  238075  56060  8105.32
    6805.8  230647  54573.6  7914.68
    6811.48  252672  60152.6  8752.58
    6817.07  247707  59328.2  8647
    6822.77  246420  59350.4  8674.95
    6828.47  245754  59514  8716.42
    6834.19  245756  59846.1  8792.42
    6839.92  245814  60192.7  8867.96
    6845.66  245910  60551.9  8945.04
    6851.4  245625  60822.6  9008.63
    6857.16  245828  61224.7  9091.76
    6863.03  243987  61106.5  9100.41
    6868.81  244290  61531.6  9188.59
    6874.7  245140  62102.4  9292.3
    6880.5  245416  62530.6  9381.54
    6886.41  246186  63096.4  9489.31
    6892.33  246041  63405.7  9558.62
    6898.26  245707  63686.4  9629.44
    6904.2  246085  64149.7  9727.8
    6910.15  246593  64647.5  9825.69
    6916.11  246488  64972.8  9911.1
    6922.09  246150  65257.6  9974.04
    6928.18  245843  65535  10057.5
    6934.17  245959  65961.9  10146.5
    6940.28  246263  66409.2  10244.1
    6946.3  246138  66746.1  10322.1
    6952.43  246070  67101.6  10405.7
    6958.57  245903  67446.5  10487.8
    6964.62  246272  67923.9  10592.5
    6970.78  245113  67978.8  10620.7
    6976.96  244342  68134.3  10676.4
    6983.15  244626  68605.2  10774.6
    6989.35  244845  69037.7  10872.4
    6995.66  244834  69417.8  10961.7
    7001.88  244727  69761.3  11043.5
    7008.12  244850  70183.3  11139.9
    7014.47  245034  70622.8  11229.7
    7020.72  245158  71065.9  11334.1
    7027.1  245256  71479.4  11423.1
    7033.38  245355  71897.5  11518.6
    7039.77  245502  72340.1  11619.6
    7046.18  245772  72801.2  11718.1
    7052.6  245910  73237.8  11824.2
    7059.04  246075  73687  11926.8
    7065.48  245488  73912.6  11985.9
    7071.94  245840  74428.8  12106.5
    7078.41  245686  74780.4  12196.7
    7084.9  245575  75150.6  12288.4
    7091.39  245477  75532.3  12376.6
    7097.9  245463  75946.5  12472.4
    7104.53  245437  76329.3  12573.7
    7111.06  245275  76685.5  12655.5