File: data/Cr/cro2_rt_003.xdi
# XDI/1.0
# Column.1: energy eV
# Column.2: i0
# Column.3: itrans
# Column.4: irefer
# Beamline.name: SSRL 2-3
# Beamline.notes: vert slits = 0.6mm
# Detector.I0: N2 15cm
# Detector.I1: N2 30cm
# Detector.I2: N2 15cm
# Element.edge: K
# Element.symbol: Cr
# Mono.d_spacing: 3.13550
# Mono.name: Si(111)
# Mono.notes: unfocused, detuned 75%, clockwise at E=5990eV
# Sample.formula: CrO2
# Sample.name: CrO2
# Sample.prep: powder on tape (4 layers)
# Sample.reference: Cr foil
# Sample.temperature: room temp
# Scan.start_time: 1997-04-17 19:39:50
# ///
#    Note: mono d_spacing is nominal!
#     exafs to K16
#     396  E XMU XMUR I0
#-------------
#   energy   i0   itrans  irefer
    5759.99  25491.9  22303.5  2831.7
    5769.98  25425.9  22617.5  2889.7
    5780.01  25397.9  22973.5  2953.7
    5790  25347.9  23318.5  3017.7
    5799.97  25298.9  23665.5  3081.7
    5810.03  25253.9  24027.5  3147.7
    5820  25207.9  24373.5  3212.7
    5830  25160.9  24726.5  3280.7
    5839.97  25131.9  25100.5  3353.7
    5849.98  25092.9  25473.5  3421.7
    5860.02  25057.9  25857.5  3495.7
    5870.02  25010.9  26232.5  3565.7
    5879.99  24957.9  26582.5  3635.7
    5890  24910.9  26951.5  3707.7
    5899.97  24847.9  27307.5  3781.7
    5909.98  24788.9  27668.5  3849.7
    5920.02  24717.9  28023.5  3926.7
    5930.03  24669.9  28396.5  3997.7
    5939.99  24621.9  28770.5  4074.7
    5950  24567.9  29127.5  4147.7
    5959.97  24523.9  29504.5  4222.7
    5969.97  24457.9  29862.5  4295.7
    5970.49  24427.9  29853.5  4295.7
    5971.01  24385.9  29828.5  4293.7
    5971.53  24313.9  29753.5  4283.7
    5971.97  24203.9  29635.5  4265.7
    5972.49  24074.9  29492.5  4248.7
    5973.01  24101.9  29552.5  4256.7
    5973.53  24279.9  29786.5  4291.7
    5973.98  24408.9  29965.5  4319.7
    5974.5  24455.9  30036.5  4328.7
    5975.02  24468.9  30076.5  4338.7
    5975.46  24465.9  30099.5  4340.7
    5975.98  24481.9  30140.5  4347.7
    5976.51  24451.9  30126.5  4345.7
    5977.03  24462.9  30165.5  4351.7
    5977.47  24464.9  30173.5  4354.7
    5977.99  24463.9  30205.5  4357.7
    5978.52  24449.9  30204.5  4360.7
    5979.04  24460.9  30246.5  4367.7
    5979.48  24470.9  30269.5  4368.7
    5980.01  24466.9  30287.5  4371.7
    5980.53  24448.9  30277.5  4372.7
    5980.97  24482.9  30343.5  4378.7
    5981.49  24481.9  30366.5  4384.7
    5982.02  24474.9  30384.5  4384.7
    5982.46  24456.9  30382.5  4385.7
    5982.99  24484.9  30434.5  4391.7
    5983.51  24482.9  30453.5  4394.7
    5984.03  24482.9  30482.5  4398.7
    5984.48  24479.9  30494.5  4402.7
    5985  24483.9  30511.5  4404.7
    5985.52  24395.9  30425.5  4392.7
    5985.97  24149.9  30136.5  4348.7
    5986.49  23612.9  29485.5  4252.7
    5987.02  22330.9  27897.5  4019.7
    5987.46  21242.9  26549.5  3821.7
    5987.99  21771.9  27235.5  3914.7
    5988.51  22876.9  28637.5  4106.7
    5989.03  23443.9  29361.5  4191.7
    5989.48  23720.9  29726.5  4218.7
    5990  23929.9  29992.5  4199.7
    5990.53  24049.9  30162.5  4119.7
    5990.98  24104.9  30223.5  4019.7
    5991.5  24131.9  30229.5  3917.7
    5992.02  24144.9  30211.5  3833.7
    5992.47  24168.9  30229.5  3777.7
    5992.99  24192.9  30260.5  3723.7
    5993.52  24174.9  30233.5  3665.7
    5993.97  24187.9  30227.5  3628.7
    5994.49  24201.9  30244.5  3589.7
    5995.02  24200.9  30240.5  3558.7
    5995.47  24172.9  30212.5  3536.7
    5995.99  24194.9  30259.5  3529.7
    5996.51  24213.9  30313.5  3531.7
    5996.96  24195.9  30323.5  3530.7
    5997.49  24193.9  30350.5  3535.7
    5998.01  24186.9  30359.5  3522.7
    5998.54  24193.9  30371.5  3491.7
    5998.99  24175.9  30342.5  3443.7
    5999.51  24159.9  30287.5  3371.7
    6000.04  24148.9  30197.5  3291.7
    6000.49  24155.9  30119.5  3222.7
    6001.01  24030.9  29796.5  3120.7
    6001.46  23891.9  29474.5  3036.7
    6001.99  23810.9  29175.5  2951.7
    6002.51  23851.9  29021.5  2891.7
    6002.96  23964.9  28965.5  2852.7
    6003.49  24104.9  28907.5  2813.7
    6004.02  24171.9  28777.5  2768.7
    6004.47  24178.9  28612.5  2726.7
    6004.99  24152.9  28415.5  2680.7
    6005.52  24146.9  28241.5  2638.7
    6005.97  24168.9  28116.5  2605.7
    6006.5  24157.9  27897.5  2561.7
    6007.02  24143.9  27638.5  2514.7
    6007.47  24133.9  27412.5  2471.7
    6008  24161.9  27155.5  2422.7
    6008.53  24139.9  26808.5  2369.7
    6008.98  24124.9  26514.5  2328.7
    6009.5  24137.9  26196.5  2276.7
    6010.03  24138.9  25892.5  2227.7
    6010.94  24119.7  25566.3  2169.46
    6011.84  24099  25425.5  2163.76
    6012.82  24097.8  25421.3  2208.58
    6013.8  24124.1  25556.6  2280.93
    6014.78  24120  25713.4  2343.81
    6015.76  24120.4  25946.7  2394.22
    6016.81  24147.3  26196.5  2419.16
    6017.8  24153.7  26345.8  2419.63
    6018.93  24158.7  26474.7  2399.62
    6019.99  24161.2  26642  2389.15
    6021.12  24198.2  26896.9  2394.2
    6022.18  24211.8  27056.3  2407.79
    6023.39  24248.8  27167.1  2433.9
    6024.52  24246.4  27160.5  2450.54
    6025.73  24279.6  27159.4  2458.71
    6026.87  24332.2  27167.8  2445.41
    6028.16  24351.4  27163.8  2421.63
    6029.37  24379.1  27267.2  2409.39
    6030.58  24411.3  27489.1  2414.68
    6031.87  24457.1  27802.6  2429.49
    6033.16  24503.4  28119.6  2450.84
    6034.53  24528.2  28400  2475.71
    6035.82  24572.5  28683  2497.11
    6037.19  24610.4  28954.5  2519.04
    6038.56  24664.8  29236.5  2534.5
    6040  24703.7  29468  2541.49
    6041.37  24742.1  29649.1  2552.01
    6042.82  24787.1  29771.6  2566.05
    6044.26  24857.6  29870.6  2587.63
    6045.71  24911.6  29926.2  2603.73
    6047.24  24958.1  29979.3  2618.37
    6048.76  25002.2  30088.8  2638.53
    6050.29  25084.8  30259.9  2671.22
    6051.82  25134.9  30410.5  2710.44
    6053.42  25195.5  30537.6  2756.19
    6054.95  25261.7  30634.3  2793.47
    6056.56  25336.4  30699.4  2832.28
    6058.24  25406.6  30743  2860.61
    6059.85  25473.4  30783.2  2883.48
    6061.53  25501.6  30781.8  2899.87
    6063.22  25520.4  30808  2906.8
    6064.91  25590.8  30897.7  2907.25
    6066.68  25677.6  31017.9  2894.23
    6068.36  25786  31131.6  2878.74
    6070.13  25846.9  31196.8  2848.78
    6071.9  25920.3  31309.5  2823.34
    6073.75  26012.3  31512.8  2824.44
    6075.52  26121.8  31778.5  2861.07
    6077.37  26202.8  32010.8  2919.22
    6079.22  26303.3  32277.5  2985.9
    6081.15  26383.4  32513.8  3053.12
    6083  26492  32763.6  3122.86
    6084.93  26579.1  32971.9  3183.13
    6086.87  26669.7  33186.7  3224.93
    6088.8  26802.9  33457  3236.26
    6090.81  26893.6  33661.9  3209.12
    6092.83  27008.8  33902.2  3160.5
    6094.84  27103.5  34130  3111.42
    6096.86  27188.8  34360.4  3065.86
    6098.88  27335.6  34675.3  3043.84
    6100.98  27441.9  34959.7  3037.34
    6103.07  27562.7  35247.6  3069.37
    6105.18  27670.1  35531  3135.93
    6107.28  27780  35779.9  3226.02
    6109.46  27903.4  36014.3  3324.64
    6111.64  28033.4  36240.2  3421.79
    6113.83  28147.8  36466.7  3504.46
    6116.01  28262.8  36750.6  3567.67
    6118.28  28400.4  37108.1  3615.4
    6120.47  28533.4  37472.1  3647.66
    6122.74  28659  37838.6  3674.46
    6125.01  28787.1  38215.6  3705.78
    6127.36  28913.7  38592.1  3751.63
    6129.64  29052.9  38952.1  3808.01
    6131.99  29188.6  39270.6  3867.91
    6134.35  29322.8  39563.6  3919.35
    6136.79  29465.5  39843.2  3958.32
    6139.15  29633.8  40152.2  3987.81
    6141.59  29760.6  40422.8  4002.83
    6144.04  29901.9  40689.9  4026.39
    6146.48  30037.7  40979.5  4044.47
    6148.93  30209.1  41303.6  4055.08
    6151.46  30339  41568.2  4055.22
    6153.99  30490.4  41845.3  4071.89
    6156.53  30673.3  42188  4100.08
    6159.06  30833.8  42547.1  4113.81
    6161.6  30969.8  42897.7  4113.07
    6164.22  31157.3  43321.9  4110.85
    6166.84  31290.3  43661.6  4119.17
    6169.47  31446.9  44028.8  4172.01
    6172.1  31622  44440.5  4256.38
    6174.81  31789.6  44873.7  4359.28
    6177.52  31951.8  45325.4  4465.71
    6180.23  32088.5  45720.6  4555.67
    6182.95  32288.7  46215.3  4650.16
    6185.67  32443.4  46636.6  4721.17
    6188.47  32643.6  47154.3  4790.72
    6191.27  32802.4  47588.6  4850.79
    6194.08  32940.7  47995.4  4903.39
    6196.89  33119.5  48451.7  4969.52
    6199.7  33330.9  48926.5  5040.18
    6202.6  33499.8  49341.8  5097.37
    6205.5  33666.2  49761.6  5157.1
    6208.4  33862.1  50232.9  5232.34
    6211.3  34025.6  50686.8  5315.12
    6214.21  34220.6  51188.1  5401.42
    6217.2  34445.1  51757  5474.26
    6220.2  34637.1  52269.4  5523.63
    6223.19  34821.7  52765.2  5555.52
    6226.19  35003.8  53260.6  5579.94
    6229.2  35205.4  53808.5  5601.89
    6232.28  35383.5  54298  5617.37
    6235.38  35448.2  54595.9  5610.37
    6238.47  35860.4  55433.3  5664.91
    6241.56  35113.1  54478.3  5543.98
    6244.75  36024.4  56144.7  5705.57
    6247.85  36261.1  56773.7  5790.7
    6251.04  36513.4  57429.1  5910.36
    6254.23  36676.2  57896.1  6035.54
    6257.43  36902.6  58476.6  6187.25
    6260.71  37078.5  58969.6  6310.49
    6263.91  37316.9  59572.2  6411.26
    6267.2  37537.8  60174.2  6488.55
    6270.49  37724.2  60737.7  6559.38
    6273.79  37946.2  61338.8  6639.74
    6277.17  38149.7  61902.3  6722.62
    6280.48  38373.8  62507.4  6810.04
    6283.86  38550.3  63073  6882.98
    6287.26  38778.4  63735.1  6960.45
    6290.65  38980  64340.7  7035.45
    6294.06  39199.1  64989.8  7124.98
    6297.54  39423.8  65634.4  7224.04
    6300.95  39627  66253.5  7326.63
    6304.45  39852.7  66914.2  7422.75
    6307.95  40049.9  67530.3  7511.39
    6311.54  40321.7  68288  7607.57
    6315.05  40567  68999.2  7690.27
    6318.56  40775.8  69650.9  7753.51
    6322.16  41011.1  70359.1  7812.26
    6325.77  41259  71101.8  7882.56
    6329.38  41432.4  71729  7948.38
    6333.07  41649.3  72451.7  8030.72
    6336.69  41901.8  73191.9  8124.6
    6340.4  42135.7  73947.7  8215.01
    6344.11  42347.2  74638  8321.95
    6347.83  42550.3  75349.7  8439.41
    6351.55  42784.8  76096  8555.4
    6355.27  43035.9  76906.8  8687.93
    6359.09  43206.5  77601.1  8806.97
    6362.82  43436.6  78365.9  8945.56
    6366.65  43656.3  79127.2  9088.66
    6370.47  43890.4  79894.1  9219.3
    6374.31  44121.1  80694.4  9344.47
    6378.23  44331.4  81455.2  9446.16
    6382.07  44562.1  82283.6  9554.39
    6386.01  44759.4  83010.5  9658.15
    6389.95  44994.2  83823.9  9773.42
    6393.89  45242.5  84647.8  9895.24
    6397.84  45455.4  85431.2  10016.6
    6401.88  45690.8  86290.1  10128.5
    6405.84  45898.7  87072.5  10233.9
    6409.89  46138.1  87940.4  10355.8
    6413.95  46401.1  88857.9  10485.2
    6418.01  46583.6  89638.8  10609.2
    6422.08  46863.6  90595.3  10757.7
    6426.15  47097.1  91467.3  10883.8
    6430.32  47328.2  92336.8  11001.4
    6434.4  47520.8  93161.8  11100.4
    6438.58  47754.9  94098.3  11218.1
    6442.76  47968.6  94986.3  11337.2
    6446.95  48239.7  96004.8  11495.9
    6451.23  48464.4  96942.9  11651.1
    6455.43  48664.7  97838.4  11810.9
    6459.72  48915.4  98836.5  11980.2
    6463.93  49126.7  99717  12127
    6468.24  49361.5  100707  12279.3
    6472.55  49595.8  101691  12434.2
    6476.95  49803.7  102619  12581.6
    6481.28  50029  103599  12741.5
    6485.61  50261.9  104563  12909.9
    6490.03  50496.4  105568  13062.9
    6494.46  50739.3  106569  13206.4
    6498.9  50974.8  107627  13355.4
    6503.34  51217.8  108668  13513
    6507.79  51456.4  109737  13682.1
    6512.34  51696.4  110800  13863.7
    6516.8  51906  111798  14030.9
    6521.35  52154.1  112896  14209.6
    6525.92  52351.8  113908  14388.8
    6530.49  52581.9  114970  14565.5
    6535.07  52796.6  116028  14735.8
    6539.65  52996.8  117040  14896.6
    6544.25  53209.6  118095  15060.9
    6548.94  53357.8  119030  15204.8
    6553.54  53529.6  120048  15360.1
    6558.24  53768.9  121208  15539.1
    6562.95  53984.8  122287  15717.5
    6567.67  54231.2  123434  15904.5
    6572.4  54426.1  124496  16086
    6577.22  54645.5  125629  16273
    6581.96  54877.4  126760  16469.6
    6586.79  55076.9  127845  16663.6
    6591.55  55340.9  129072  16880.3
    6596.4  55505.4  130098  17055.4
    6601.26  55764.5  131343  17267.1
    6606.12  55979.1  132533  17464.3
    6611.09  56129.2  133572  17645
    6615.97  56385.8  134858  17859.3
    6620.95  56630  136117  18071.1
    6625.85  56788.6  137186  18253.4
    6630.85  57018.8  138427  18469.2
    6635.85  57227.6  139635  18683.6
    6640.87  57431.8  140819  18901.5
    6645.89  57645.6  142046  19121.9
    6650.92  57829.9  143178  19321.9
    6655.96  58016.8  144388  19538.4
    6661.1  58230.1  145657  19758.4
    6666.15  58423  146852  19976
    6671.31  58563.4  147957  20177
    6676.47  58761.4  149178  20389.6
    6681.64  58909.8  150285  20582.8
    6686.82  59058.8  151409  20790.4
    6692.01  59084.4  152257  20964.6
    6697.3  58992.4  152786  21087.4
    6702.51  56294  146495  20261.6
    6707.72  61478.1  160784  22291.4
    6713.04  60913.7  160117  22260.7
    6718.37  60826.8  160716  22389.5
    6723.7  60869.5  161647  22570.9
    6729.05  60919.7  162580  22765.8
    6734.4  60871.4  163310  22925.3
    6739.77  61506.7  165868  23348.2
    6745.14  61432.5  166524  23505.7
    6750.61  60540.8  164936  23347.7
    6756  60145.6  164670  23378.2
    6761.5  61284  168621  24008.3
    6766.91  62351.9  172494  24618.9
    6772.42  60941.3  169434  24248
    6777.94  62784.2  175476  25186.7
    6783.48  62814.7  176480  25393.9
    6789.02  62842.6  177463  25607.6
    6794.57  62788.2  178226  25782.8
    6800.23  62456.2  178192  25854.6
    6805.8  60205.8  172682  25123.9
    6811.48  65177.8  187927  27414.7
    6817.07  64569.5  187102  27358.1
    6822.77  64427.6  187686  27514
    6828.47  64526.3  188934  27771.4
    6834.19  64585.5  190067  28003.4
    6839.92  64768.2  191594  28306.8
    6845.66  64889.4  192956  28578.8
    6851.4  65020.2  194290  28847.4
    6857.16  65137.5  195646  29124.5
    6863.03  65272.3  197083  29418.1
    6868.81  65370.7  198409  29692.2
    6874.7  65501.5  199855  29988.8
    6880.5  65619.9  201052  30243
    6886.41  65705.9  202623  30563.7
    6892.33  65829.3  204060  30858.9
    6898.26  65922.3  205362  31143.7
    6904.2  66051.8  206853  31450
    6910.15  66197.8  208378  31770.8
    6916.11  66292.4  209726  32064.2
    6922.09  66242.5  210689  32297.1
    6928.18  66358.1  212128  32613.5
    6934.17  66510.2  213764  32960.4
    6940.28  66617.9  215221  33274.9
    6946.3  66655.1  216395  33561.9
    6952.43  66822.8  218084  33908.4
    6958.57  66911  219499  34221.4
    6964.62  67009.8  220914  34527.1
    6970.78  67071.1  222242  34826.2
    6976.96  67184.9  223735  35152.8
    6983.15  67282.2  225187  35468
    6989.35  67314.1  226479  35755.7
    6995.66  67396.5  227914  36078.9
    7001.88  67483.4  229334  36392.7
    7008.12  67540.9  230680  36704
    7014.47  67661.8  232283  37049.8
    7020.72  67748.3  233780  37383.1
    7027.1  67840.3  235268  37720
    7033.38  67847.9  236449  38013.4
    7039.77  67941  237978  38359.3
    7046.18  67977.6  239268  38666.8
    7052.6  68050.7  240794  39005.8
    7059.04  68140.3  242280  39340.3
    7065.48  68186.5  243557  39648.3
    7071.94  68194.2  244847  39957.9
    7078.41  68364.5  246666  40364
    7084.9  68318.2  247761  40644.7
    7091.39  68346.5  249098  40982.8
    7097.9  68325.3  250245  41277.5
    7104.53  68412.6  251846  41652.8
    7111.06  68391.5  252967  41938.5