File: data/Cr/k2cr2o7_15K_001.xdi
# XDI/1.0
# Column.1: energy eV
# Column.2: i0
# Column.3: itrans
# Column.4: irefer
# Beamline.name: SSRL 2-3
# Beamline.notes: vert slits = 0.6mm
# Detector.I0: N2 15cm
# Detector.I1: N2 30cm
# Detector.I2: N2 15cm
# Element.edge: K
# Element.symbol: Cr
# Mono.d_spacing: 3.13550
# Mono.name: Si(111)
# Mono.notes: unfocused, detuned 75%, clockwise at E=5990eV
# Sample.formula: K2Cr2O7
# Sample.name: K2Cr2O7
# Sample.prep: powder on tape (4 layers)
# Sample.reference: Cr foil
# Sample.temperature: 15K
# Scan.start_time: 1997-04-18 12:31:25
# ///
#    Note: mono d_spacing is nominal!
#     exafs to K16
#     396  E XMU XMUR I0
#-------------
#   energy   i0   itrans  irefer
    5759.99  155473  4802.7   614.3
    5769.98  154707  4882.7   628.3
    5780.01  154202  4975.7   642.3
    5790  153799  5069.7   658.3
    5799.97  153213  5157.7   674.3
    5810.03  152464  5245.7   690.3
    5820  151606  5325.7   704.3
    5830  151136  5421.7   721.3
    5839.97  150461  5510.7   737.3
    5849.98  149947  5606.7   754.301
    5860.02  148864  5681.7   770.3
    5870.02  148515  5790.7   788.3
    5879.99  147735  5876.7   805.3
    5890  147254  5976.7   825.3
    5899.97  146235  6054.7   840.3
    5909.98  145603  6150.7   858.301
    5920.02  144782  6238.7   876.3
    5930.03  144188  6339.7   894.301
    5939.99  143459  6427.7   912.3
    5950  142692  6518.7   931.3
    5959.97  141960  6602.7   948.3
    5969.97  141042  6680.7   962.299
    5970.49  141112  6684.7   964.3
    5971.01  141027  6694.7   965.299
    5971.53  140758  6686.7   962.3
    5971.97  140240  6664.7   960.3
    5972.49  139276  6625.7   954.3
    5973.01  138516  6598.7   951.3
    5973.53  139380  6643.7   959.3
    5973.98  140325  6691.7   963.3
    5974.5  141129  6737.7   969.3
    5975.02  141360  6751.7   972.3
    5975.46  141291  6752.7   972.3
    5975.98  140731  6733.7   972.3
    5976.51  141039  6755.7   975.3
    5977.03  141160  6766.7   977.3
    5977.47  141006  6763.7   978.3
    5977.99  140766  6758.7   978.3
    5978.52  141078  6777.7   979.3
    5979.04  141200  6790.7   983.3
    5979.48  139979  6736.7   973.3
    5980.01  140119  6747.7   974.3
    5980.53  140235  6757.7   976.3
    5980.97  140299  6761.7   977.3
    5981.49  140097  6759.7   978.301
    5982.02  140060  6764.7   978.299
    5982.46  140300  6777.7   980.3
    5982.99  140314  6787.7   981.3
    5983.51  140367  6792.7   981.3
    5984.03  140423  6799.7   983.3
    5984.48  140451  6801.7   982.3
    5985  140976  6829.7   985.3
    5985.52  140986  6827.7   988.3
    5985.97  140432  6805.7   983.3
    5986.49  139078  6741.7   974.3
    5987.02  135327  6564.7   948.3
    5987.46  129470  6278.7   906.3
    5987.99  123756  6005.7   868.3
    5988.51  127224  6173.7   891.3
    5989.03  131806  6387.7   917.3
    5989.48  134415  6506.7   932.3
    5990  136471  6593.7   936.3
    5990.53  137727  6636.7   928.3
    5990.98  138057  6629.7   907.299
    5991.5  138381  6606.7   878.3
    5992.02  138413  6532.7   848.3
    5992.47  138625  6440.7   822.3
    5992.99  138613  6216.7   778.301
    5993.52  138634  5846.7   722.3
    5993.97  138723  5441.7   665.3
    5994.49  138508  4757.7   575.3
    5995.02  138609  3881.7   465.3
    5995.47  138403  3377.7   402.3
    5995.99  138620  3660.7   432.3
    5996.51  138538  4606.7   540.3
    5996.96  138628  5302.7   622.3
    5997.49  138481  5783.7   676.3
    5998.01  138080  6025.7   705.3
    5998.54  138074  6158.7   717.3
    5998.99  138524  6239.7   719.3
    5999.51  138344  6258.7   710.301
    6000.04  138103  6231.7   693.3
    6000.49  137931  6176.7   675.3
    6001.01  137935  6095.7   651.3
    6001.46  137280  5982.7   630.3
    6001.99  136108  5829.7   601.3
    6002.51  135645  5699.7   578.3
    6002.96  135932  5623.7   563.3
    6003.49  137177  5584.7   552.3
    6004.02  137876  5544.7   541.3
    6004.47  138128  5511.7   533.3
    6004.99  138150  5467.7   524.3
    6005.52  137902  5399.7   512.3
    6005.97  137961  5322.7   500.3
    6006.5  137939  5192.7   483.3
    6007.02  138023  5044.7   463.3
    6007.47  137681  4907.7   448.3
    6008  137629  4762.7   432.3
    6008.53  137683  4589.7   411.3
    6008.98  137773  4416.7   393.3
    6009.5  137565  4180.7   369.3
    6010.03  137550  3955.7   346.3
    6010.94  137667  3610.46   312.064
    6011.84  137591  3359.73   289.358
    6012.82  137299  3212.51   281.181
    6013.8  137287  3142.81   282.534
    6014.78  137176  3093.62   284.415
    6015.76  137263  3044.95   284.826
    6016.81  137395  3014.78   283.765
    6017.8  137253  2988.13   280.234
    6018.93  137492  2980   276.233
    6019.99  137542  2994.38   273.76
    6021.12  136972  3012.27   272.817
    6022.18  136259  3013.68   274.402
    6023.39  136674  3003.6   273.518
    6024.52  137167  2962.03   272.162
    6025.73  137308  2899.98   268.335
    6026.87  137400  2846.44   262.038
    6028.16  137847  2810.41   256.27
    6029.37  138042  2783.9   251.031
    6030.58  138227  2763.91   249.321
    6031.87  138452  2757.42   247.141
    6033.16  138111  2743.45   244.49
    6034.53  138729  2758.99   246.367
    6035.82  139038  2774.05   247.774
    6037.19  139282  2784.62   245.711
    6038.56  139290  2792.7   248.176
    6040  139301  2806.3   248.171
    6041.37  139096  2818.41   247.695
    6042.82  139652  2861.03   252.748
    6044.26  140095  2909.17   256.331
    6045.71  140283  2952.82   263.442
    6047.24  140546  3011.99   269.083
    6048.76  140868  3082.66   275.252
    6050.29  141319  3143.86   280.952
    6051.82  141319  3188.56   289.181
    6053.42  141374  3259.78   298.938
    6054.95  141705  3342.52   310.225
    6056.56  142206  3429.76   322.041
    6058.24  142605  3503.52   332.386
    6059.85  142594  3552.79   339.26
    6061.53  142973  3596.58   344.664
    6063.22  142972  3614.88   347.597
    6064.91  143327  3642.7   352.059
    6066.68  143477  3666.03   351.05
    6068.36  143896  3688.86   349.57
    6070.13  143759  3698.22   345.621
    6071.9  144072  3718.09   343.199
    6073.75  144603  3751.47   343.307
    6075.52  145135  3785.37   348.944
    6077.37  145492  3815.78   354.111
    6079.22  146255  3852.7   360.807
    6081.15  146768  3874.14   369.031
    6083  147111  3888.09   374.786
    6084.93  147828  3908.55   383.069
    6086.87  148508  3922.53   387.881
    6088.8  147613  3895.02   384.223
    6090.81  148119  3903.02   380.094
    6092.83  148206  3902.55   371.494
    6094.84  148820  3927.58   364.423
    6096.86  149482  3957.12   357.882
    6098.88  150044  3980.18   354.87
    6100.98  150835  4011.75   355.387
    6103.07  151652  4038.84   358.433
    6105.18  152378  4062.44   363.008
    6107.28  152923  4078.55   372.112
    6109.46  153564  4099.18   382.746
    6111.64  154219  4120.32   393.909
    6113.83  155027  4148.98   403.601
    6116.01  155652  4173.14   409.822
    6118.28  156194  4195.83   413.573
    6120.47  156778  4218.02   415.853
    6122.74  157595  4249.73   418.662
    6125.01  157989  4274.95   422
    6127.36  158602  4307.69   425.868
    6129.64  159302  4337.94   430.264
    6131.99  159942  4375.7   438.19
    6134.35  158959  4368.98   439.645
    6136.79  160058  4431.77   447.629
    6139.15  160945  4486.07   453.143
    6141.59  161580  4531.89   458.185
    6144.04  162423  4587.22   460.757
    6146.48  163034  4635.07   465.858
    6148.93  163911  4701.42   469.488
    6151.46  164787  4775.3   473.648
    6153.99  165729  4860.68   480.336
    6156.53  166351  4932.58   486.554
    6159.06  166292  4976   489.302
    6161.6  167030  5035.92   490.578
    6164.22  167961  5097.36   490.383
    6166.84  168895  5163.31   490.718
    6169.47  168905  5193.79   496.582
    6172.1  170172  5262.76   508.975
    6174.81  170442  5308.26   521.897
    6177.52  171593  5381.27   535.349
    6180.23  172666  5446.79   549.329
    6182.95  173550  5517.83   561.839
    6185.67  174097  5572.37   570.878
    6188.47  174332  5619.43   578.447
    6191.27  175354  5682.01   586.544
    6194.08  176230  5745.1   596.17
    6196.89  177304  5817.7   601.327
    6199.7  177427  5852.82   609.012
    6202.6  178285  5910.45   616.227
    6205.5  179121  5967.6   621.97
    6208.4  179140  6000.26   629.243
    6211.3  179720  6051.42   638.044
    6214.21  180673  6120.11   650.376
    6217.2  181628  6189.31   660.236
    6220.2  182409  6251.02   665.625
    6223.19  183762  6333.25   673.544
    6226.19  184751  6403.99   677.992
    6229.2  185628  6469.24   681.97
    6232.28  186226  6524.01   680.477
    6235.38  186878  6583.28   681.512
    6238.47  187962  6656.08   686.076
    6241.56  185359  6601.39   677.171
    6244.75  187867  6734.2   690.793
    6247.85  189522  6828.54   701.946
    6251.04  191083  6924.39   718.628
    6254.23  191798  6987.75   732.839
    6257.43  192508  7044.63   750.579
    6260.71  193943  7137.02   768.848
    6263.91  194137  7184.92   775.646
    6267.2  194511  7237.34   783.975
    6270.49  195734  7326.26   793.831
    6273.79  196746  7417.71   807.217
    6277.17  197561  7506.66   819.132
    6280.48  199028  7614.13   833.576
    6283.86  199970  7705.12   843.55
    6287.26  200794  7792.62   853.053
    6290.65  201341  7868.62   864.085
    6294.06  202340  7972.15   878.646
    6297.54  201828  8015.19   885.737
    6300.95  202039  8082.74   895.357
    6304.45  203156  8191.81   914.506
    6307.95  204724  8317.39   934.185
    6311.54  205942  8429.48   947.392
    6315.05  206598  8513.08   958.127
    6318.56  206737  8576.2   963.393
    6322.16  208085  8688.84   968.188
    6325.77  208572  8761.98   978.513
    6329.38  209819  8871.65   989.366
    6333.07  210808  8975.82  1002.75
    6336.69  211262  9057.51  1012.66
    6340.4  212294  9161.72  1025.1
    6344.11  213225  9261.43  1039.07
    6347.83  214732  9388.66  1058.57
    6351.55  215751  9495.4  1073.6
    6355.27  216450  9595.65  1089.16
    6359.09  217381  9704.43  1105.24
    6362.82  218287  9823.71  1125.86
    6366.65  219092  9930.51  1146.01
    6370.47  219890  10045.8  1165.68
    6374.31  220693  10155.6  1181.88
    6378.23  220854  10228  1191.62
    6382.07  221790  10333.8  1208.88
    6386.01  222640  10445.2  1224.67
    6389.95  223347  10546.1  1236.99
    6393.89  223978  10643.5  1252.84
    6397.84  225198  10770.4  1271.22
    6401.88  226314  10899.8  1291.13
    6405.84  226859  10999.7  1303.57
    6409.89  227301  11090.2  1318.53
    6413.95  228174  11202.1  1336.03
    6418.01  228723  11300.6  1350.05
    6422.08  229805  11433.6  1373.61
    6426.15  230470  11542.1  1386.69
    6430.32  231137  11659.1  1401.3
    6434.4  231779  11772.6  1415.45
    6438.58  232184  11875.7  1428.12
    6442.76  233062  12008.2  1447.32
    6446.95  234288  12163.3  1471.05
    6451.23  234347  12263.9  1488.31
    6455.43  235719  12432  1515.09
    6459.72  235916  12536.6  1534.41
    6463.93  237102  12693.7  1556.26
    6468.24  237652  12818.4  1577.63
    6472.55  238158  12939.5  1597.54
    6476.95  237426  13001.2  1607.97
    6481.28  238636  13170.3  1628.93
    6485.61  239536  13316  1655.43
    6490.03  240145  13454.2  1676.45
    6494.46  240923  13597  1699
    6498.9  242126  13769.2  1723.08
    6503.34  242853  13915.9  1742.69
    6507.79  243400  14056.2  1763.83
    6512.34  243885  14193  1788.5
    6516.8  244101  14309.3  1809.69
    6521.35  243059  14355.1  1819.42
    6525.92  243840  14520.4  1846.67
    6530.49  244671  14680.2  1869.46
    6535.07  245237  14824.5  1895.77
    6539.65  245677  14968.4  1917.61
    6544.25  245958  15094.8  1938.98
    6548.94  246411  15239.6  1956.89
    6553.54  247774  15436  1983.32
    6558.24  248720  15619.9  2009.28
    6562.95  249039  15755.4  2033.77
    6567.67  250296  15954.3  2062.79
    6572.4  250763  16096.8  2088.33
    6577.22  251042  16237.7  2111.41
    6581.96  251589  16379.2  2134.01
    6586.79  252206  16549.2  2163.15
    6591.55  252406  16678.7  2184.81
    6596.4  252864  16823.7  2212.01
    6601.26  253335  16987.2  2239.73
    6606.12  254358  17175.3  2270.98
    6611.09  255332  17364.8  2297.76
    6615.97  255132  17480.9  2316.07
    6620.95  255039  17601.5  2340.91
    6625.85  255759  17769.6  2371.28
    6630.85  257174  18001.2  2407.18
    6635.85  257793  18178.3  2436.6
    6640.87  257943  18328  2465.56
    6645.89  258619  18513.1  2498.04
    6650.92  258356  18636.8  2520.06
    6655.96  258309  18769  2540.6
    6661.1  254565  18626.7  2529.68
    6666.15  255236  18812.9  2566.28
    6671.31  255456  18966.6  2599.41
    6676.47  255731  19123.8  2628.07
    6681.64  255766  19273.6  2652.26
    6686.82  255752  19416.9  2679.98
    6692.01  255264  19515.6  2699.23
    6697.3  254000  19571.9  2711
    6702.51  245031  19000.7  2636.31
    6707.72  276418  21605  3002.15
    6713.04  266047  20957.9  2924.51
    6718.37  266236  21141.2  2958.41
    6723.7  262001  20962.1  2940.83
    6729.05  261634  21095.4  2959.78
    6734.4  260796  21193.3  2981.26
    6739.77  264442  21671.7  3052.27
    6745.14  262625  21675.6  3063.82
    6750.61  259154  21582.1  3060.88
    6756  257144  21553  3062.48
    6761.5  266674  22490.5  3208.61
    6766.91  269098  22892.4  3271.27
    6772.42  263590  22595.9  3237.46
    6777.94  270208  23345.9  3357.17
    6783.48  269549  23465.4  3381.42
    6789.02  266872  23413.4  3378.19
    6794.57  266557  23559  3411.49
    6800.23  264415  23554  3419.32
    6805.8  254694  22844.6  3325.69
    6811.48  279917  25311.6  3693.58
    6817.07  274537  25004.2  3660
    6822.77  273831  25127.3  3681.95
    6828.47  272538  25201  3702.43
    6834.19  272623  25400.1  3745.43
    6839.92  272497  25586.7  3783.97
    6845.66  272341  25764.9  3818.03
    6851.4  272486  25979.5  3859.63
    6857.16  272202  26143.7  3898.75
    6863.03  272358  26366.4  3942.41
    6868.81  271839  26524.7  3968.59
    6874.7  271397  26691.4  4007.3
    6880.5  271849  26946.6  4055.54
    6886.41  272766  27236.4  4111.31
    6892.33  273208  27490.6  4169.61
    6898.26  273380  27726.4  4218.45
    6904.2  272468  27849.7  4249.8
    6910.15  272405  28055.5  4292.69
    6916.11  272305  28263.8  4330.11
    6922.09  272226  28477.7  4377.05
    6928.18  272111  28691  4424.52
    6934.17  272113  28915.9  4470.53
    6940.28  272448  29175.2  4521.06
    6946.3  272522  29404.1  4577.13
    6952.43  271807  29554.5  4614.72
    6958.57  271879  29791.4  4662.84
    6964.62  271680  30003.9  4707.48
    6970.78  271767  30243.8  4753.66
    6976.96  271777  30478.3  4797.38
    6983.15  272199  30763.2  4849.61
    6989.35  271975  30969.7  4899.38
    6995.66  273097  31341.7  4979.67
    7001.88  273281  31604.2  5028.5
    7008.12  272246  31728.3  5064.86
    7014.47  272477  31993.8  5123.74
    7020.72  272920  32283.8  5178.15
    7027.1  273140  32551.4  5239.09
    7033.38  272714  32747.5  5283.56
    7039.77  272704  32990.1  5335.57
    7046.18  272461  33218.2  5379.1
    7052.6  271743  33386.8  5426.16
    7059.04  272047  33667  5488.75
    7065.48  271417  33829.6  5531.86
    7071.94  270201  33929.8  5555.51
    7078.41  268157  33919.4  5561.68
    7084.9  268728  34240.6  5625.39
    7091.39  269509  34586.3  5692.62
    7097.9  270182  34935.5  5769.38
    7104.53  271354  35337.3  5851.68
    7111.06  272091  35690.5  5925.5