File: data/Cr/k2cro4_rt_003.xdi
# XDI/1.0
# Column.1: energy eV
# Column.2: i0
# Column.3: itrans
# Column.4: irefer
# Beamline.name: SSRL 2-3
# Beamline.notes: vert slits = 0.6mm
# Detector.I0: N2 15cm
# Detector.I1: N2 30cm
# Detector.I2: N2 15cm
# Element.edge: K
# Element.symbol: Cr
# Mono.d_spacing: 3.13550
# Mono.name: Si(111)
# Mono.notes: unfocused, detuned 75%, clockwise at E=5990eV
# Sample.formula: K2CrO4
# Sample.name: K2CrO4
# Sample.prep: powder on tape (5 layers)
# Sample.reference: Cr foil
# Sample.temperature: room temperature
# Scan.start_time: 1997-04-17 22:36:29
# ///
#    Note: mono d_spacing is nominal!
#     exafs to K16
#     396  E XMU XMUR I0
#-------------
#   energy   i0   itrans  irefer
    5759.99  25253.9  7299.5   930.7
    5769.98  25243.9  7459.5   955.7
    5780.01  25223.9  7623.5   983.7
    5790  25189.9  7776.5  1009.7
    5799.97  25154.9  7936.5  1038.7
    5810.03  25112.9  8094.5  1065.7
    5820  25073.9  8254.5  1091.7
    5830  25028.9  8416.5  1119.7
    5839.97  24990.9  8584.5  1149.7
    5849.98  24945.9  8754.5  1177.7
    5860.02  24917.9  8931.5  1209.7
    5870.02  24872.9  9100.5  1241.7
    5879.99  24842.9  9278.5  1271.7
    5890  24806.9  9460.5  1304.7
    5899.97  24770.9  9639.5  1336.7
    5909.98  24732.9  9822.5  1369.7
    5920.02  24677.9  9996.5  1401.7
    5930.03  24631.9  10173.5  1433.7
    5939.99  24579.9  10351.5  1469.7
    5950  24520.9  10523.5  1499.7
    5959.97  24476.9  10705.5  1535.7
    5969.97  24398.9  10872.5  1565.7
    5970.49  24391.9  10874.5  1569.7
    5971.01  24345.9  10870.5  1569.7
    5971.53  24244.9  10832.5  1564.7
    5971.97  24102.9  10773.5  1553.7
    5972.49  24030.9  10754.5  1552.7
    5973.01  24129.9  10813.5  1561.7
    5973.53  24299.9  10896.5  1573.7
    5973.98  24383.9  10941.5  1580.7
    5974.5  24431.9  10972.5  1584.7
    5975.02  24447.9  10986.5  1587.7
    5975.46  24441.9  10994.5  1590.7
    5975.98  24434.9  11000.5  1591.7
    5976.51  24432.9  11010.5  1592.7
    5977.03  24441.9  11025.5  1595.7
    5977.47  24435.9  11030.5  1597.7
    5977.99  24421.9  11032.5  1596.7
    5978.52  24431.9  11044.5  1598.7
    5979.04  24443.9  11057.5  1601.7
    5979.48  24438.9  11065.5  1601.7
    5980.01  24429.9  11070.5  1600.7
    5980.53  24428.9  11079.5  1604.7
    5980.97  24444.9  11090.5  1606.7
    5981.49  24438.9  11097.5  1607.7
    5982.02  24441.9  11104.5  1608.7
    5982.46  24445.9  11115.5  1609.7
    5982.99  24448.9  11130.5  1612.7
    5983.51  24468.9  11144.5  1614.7
    5984.03  24455.9  11146.5  1614.7
    5984.48  24460.9  11154.5  1616.7
    5985  24438.9  11150.5  1614.7
    5985.52  24282.9  11081.5  1604.7
    5985.97  23979.9  10945.5  1583.7
    5986.49  23239.9  10613.5  1535.7
    5987.02  21748.9  9932.5  1435.7
    5987.46  21147.9  9664.5  1395.7
    5987.99  22171.9  10131.5  1459.7
    5988.51  23096.9  10544.5  1514.7
    5989.03  23559.9  10740.5  1533.7
    5989.48  23798.9  10849.5  1537.7
    5990  23974.9  10908.5  1521.7
    5990.53  24064.9  10922.5  1477.7
    5990.98  24110.9  10896.5  1437.7
    5991.5  24136.9  10831.5  1395.7
    5992.02  24139.9  10690.5  1350.7
    5992.47  24160.9  10484.5  1305.7
    5992.99  24183.9  10070.5  1237.7
    5993.52  24192.9  9233.5  1119.7
    5993.97  24187.9  8003.5   962.7
    5994.49  24198.9  6355.5   758.7
    5995.02  24220.9  5943.5   702.7
    5995.47  24210.9  6998.5   821.7
    5995.99  24191.9  8656.5  1012.7
    5996.51  24209.9  9744.5  1140.7
    5996.96  24217.9  10184.5  1191.7
    5997.49  24211.9  10437.5  1218.7
    5998.01  24200.9  10566.5  1226.7
    5998.54  24204.9  10609.5  1217.7
    5998.99  24208.9  10594.5  1197.7
    5999.51  24201.9  10529.5  1167.7
    6000.04  24163.9  10401.5  1129.7
    6000.49  24138.9  10257.5  1094.7
    6001.01  24026.9  10029.5  1046.7
    6001.46  23902.9  9848.5  1010.7
    6001.99  23812.9  9697.5   978.7
    6002.51  23900.9  9681.5   964.7
    6002.96  24037.9  9746.5   959.7
    6003.49  24159.9  9838.5   956.7
    6004.02  24188.9  9882.5   950.7
    6004.47  24189.9  9884.5   941.7
    6004.99  24196.9  9854.5   931.7
    6005.52  24183.9  9772.5   913.7
    6005.97  24163.9  9652.5   895.7
    6006.5  24170.9  9498.5   872.7
    6007.02  24174.9  9280.5   847.7
    6007.47  24165.9  9023.5   816.7
    6008  24151.9  8616.5   774.7
    6008.53  24164.9  8123.5   722.7
    6008.98  24160.9  7697.5   679.7
    6009.5  24163.9  7261.5   636.7
    6010.03  24141.9  6901.5   598.7
    6010.94  24153.7  6510.26   557.465
    6011.84  24157  6337.52   546.758
    6012.82  24150.8  6274.3   553.581
    6013.8  24140.1  6291.58   570.932
    6014.78  24145  6343.38   586.811
    6015.76  24170.4  6347.69   593.222
    6016.81  24194.3  6279.51   587.16
    6017.8  24194.7  6139.83   569.627
    6018.93  24203.7  6013.67   552.624
    6019.99  24240.2  5967.02   539.148
    6021.12  24267.2  5906.88   533.203
    6022.18  24275.8  5811.25   524.786
    6023.39  24292.8  5718.13   518.897
    6024.52  24323.4  5698.52   520.539
    6025.73  24369.6  5721.43   523.708
    6026.87  24387.2  5733.84   521.408
    6028.16  24414.4  5730.76   517.635
    6029.37  24440.1  5711.19   511.392
    6030.58  24481.3  5706.13   507.678
    6031.87  24525.1  5705.58   505.493
    6033.16  24559.4  5705.55   504.837
    6034.53  24592.2  5694.02   502.709
    6035.82  24639.5  5650.01   499.111
    6037.19  24683.4  5581.51   491.042
    6038.56  24734.8  5517.51   484.501
    6040  24768.7  5478.03   478.49
    6041.37  24799.1  5491.06   479.008
    6042.82  24865.1  5581.59   490.054
    6044.26  24923.6  5730.64   504.63
    6045.71  24975.6  5906.2   520.734
    6047.24  25030.1  6121.26   544.368
    6048.76  25091.2  6296.84   560.53
    6050.29  25162.8  6405.93   575.221
    6051.82  25237.9  6520.53   590.442
    6053.42  25299.5  6657.65   610.191
    6054.95  25344.7  6753.26   624.469
    6056.56  25403.4  6845.39   640.277
    6058.24  25484.6  6955.04   656.613
    6059.85  25556.4  7070.18   672.478
    6061.53  25601.6  7176.85   683.872
    6063.22  25635.4  7279.02   694.795
    6064.91  25688.8  7375.7   701.248
    6066.68  25767.6  7468.9   705.229
    6068.36  25879  7550.6   705.737
    6070.13  25968.9  7604.82   701.777
    6071.9  26035.3  7635.54   697.345
    6073.75  26111.3  7655.78   696.442
    6075.52  26198.8  7675.52   703.068
    6077.37  26300.8  7694.77   712.222
    6079.22  26402.3  7709.54   723.906
    6081.15  26502.4  7735.82   736.119
    6083  26604  7771.61   749.861
    6084.93  26698.1  7809.91   762.131
    6086.87  26788.7  7860.71   770.931
    6088.8  26896.9  7920.04   774.26
    6090.81  27001.6  7988.86   768.117
    6092.83  27130.8  8053.2   757.502
    6094.84  27228.5  8105.05   743.419
    6096.86  27336.8  8150.42   732.864
    6098.88  27443.6  8188.28   723.837
    6100.98  27549.9  8219.67   719.339
    6103.07  27682.7  8254.55   724.371
    6105.18  27803.1  8284.96   738.931
    6107.28  27942  8317.87   758.02
    6109.46  28059.4  8350.29   779.638
    6111.64  28175.4  8393.23   799.786
    6113.83  28281.8  8422.67   815.461
    6116.01  28408.8  8453.63   828.667
    6118.28  28538.4  8481.1   833.401
    6120.47  28663.4  8511.06   836.664
    6122.74  28805  8562.55   839.455
    6125.01  28949.1  8628.55   844.777
    6127.36  29072.7  8704.05   853.627
    6129.64  29235.9  8803.08   872.006
    6131.99  29337.6  8899.6   886.913
    6134.35  29496.8  9028.64   903.349
    6136.79  29648.5  9163.19   919.316
    6139.15  29778.8  9284.25   930.811
    6141.59  29939.6  9419.82   944.835
    6144.04  30091.9  9555.89   958.388
    6146.48  30229.7  9681.48   966.47
    6148.93  30384.1  9806.58   973.08
    6151.46  30547  9941.2   980.22
    6153.99  30707.4  10072.3   988.888
    6156.53  30878.3  10203.9  1002.08
    6159.06  31023.8  10327.1  1009.81
    6161.6  31188.8  10458.7  1013.07
    6164.22  31356.3  10585.9  1013.85
    6166.84  31512.3  10721.6  1021.17
    6169.47  31673.9  10852.8  1040.01
    6172.1  31824  10986.5  1064.38
    6174.81  31992.6  11125.7  1093.28
    6177.52  32156.8  11256.4  1117.71
    6180.23  32360.5  11402.6  1143.67
    6182.95  32515.7  11528.3  1167.15
    6185.67  32692.4  11657.6  1189.17
    6188.47  32870.6  11789.3  1205.71
    6191.27  33039.4  11915.6  1221.79
    6194.08  33228.7  12047.4  1236.39
    6196.89  33390.5  12162.7  1254.52
    6199.7  33575.9  12293.5  1272.19
    6202.6  33772.8  12425.8  1289.38
    6205.5  33966.2  12550.6  1309.09
    6208.4  34150.1  12681.9  1329.34
    6211.3  34301.6  12798.8  1350.12
    6214.21  34523.6  12941.1  1374.42
    6217.2  34719.1  13072  1390.26
    6220.2  34915.1  13212.4  1402.62
    6223.19  35116.7  13349.2  1409.52
    6226.19  35288.8  13472.6  1414.94
    6229.2  35487.4  13611.5  1423.89
    6232.28  35701.5  13756  1428.37
    6235.38  35663.2  13800.9  1423.38
    6238.47  36180.4  14078.3  1444.91
    6241.56  35362.1  13834.3  1415.98
    6244.75  36331.4  14283.7  1462.58
    6247.85  36643.1  14482.7  1487.7
    6251.04  36883.4  14652.2  1518.35
    6254.23  37092.2  14831.1  1555.54
    6257.43  37294.6  15005.6  1596.25
    6260.71  37520.5  15189.6  1635.49
    6263.91  37731.9  15373.2  1662.26
    6267.2  37938.8  15567.2  1685.56
    6270.49  38161.2  15761.7  1710.38
    6273.79  38348.2  15946.8  1733.74
    6277.17  38573.7  16151.3  1763.62
    6280.48  38796.8  16354.4  1793.04
    6283.86  39020.3  16563  1815.98
    6287.26  39258.4  16791.1  1843.45
    6290.65  39467  16999.7  1869.45
    6294.06  39680.1  17219.8  1895.98
    6297.54  39907.8  17438.4  1930.04
    6300.95  40117  17647.5  1961.63
    6304.45  40324.7  17870.2  1994.75
    6307.95  40563.9  18105.3  2023.39
    6311.54  40783.7  18326  2051.57
    6315.05  41003  18559.2  2078.27
    6318.56  41228.8  18790.9  2099.5
    6322.16  41445.1  19018.1  2118.26
    6325.77  41675  19257.8  2141.56
    6329.38  41922.4  19503  2170.37
    6333.07  42148.3  19746.7  2199.72
    6336.69  42378.8  19985.9  2226.6
    6340.4  42625.7  20229.7  2260.01
    6344.11  42869.2  20480  2294.94
    6347.83  43074.3  20703.7  2329.41
    6351.55  43315.8  20952  2368.4
    6355.27  43575.9  21212.8  2406.92
    6359.09  43815.5  21465.1  2447.97
    6362.82  44033.6  21695.9  2489.55
    6366.65  44251.3  21942.2  2531.66
    6370.47  44492.4  22192.1  2571.3
    6374.31  44724.1  22445.4  2609.47
    6378.23  44969.4  22710.2  2642.17
    6382.07  45240.1  22988.6  2681.39
    6386.01  45470.4  23258.5  2718.15
    6389.95  45702.2  23521.9  2755.43
    6393.89  45923.5  23783.8  2796.24
    6397.84  46187.4  24073.2  2833.58
    6401.88  46434.8  24362.1  2869.45
    6405.84  46671.7  24654.5  2907.85
    6409.89  46893.1  24932.4  2949.78
    6413.95  47154.1  25244.9  2995.23
    6418.01  47378.6  25528.8  3035.22
    6422.08  47604.6  25835.3  3084.73
    6426.15  47841.1  26136.3  3127.78
    6430.32  48068.2  26443.8  3170.35
    6434.4  48299.8  26755.8  3205.45
    6438.58  48546.9  27082.3  3245.08
    6442.76  48800.6  27427.3  3292.24
    6446.95  49034.7  27758.8  3339.93
    6451.23  49273.4  28096.9  3395.15
    6455.43  49531.7  28456.4  3449.89
    6459.72  49751.4  28808.5  3508.17
    6463.93  50059.7  29200  3567.98
    6468.24  50255.5  29543.1  3617.31
    6472.55  50478.8  29891.7  3668.17
    6476.95  50750.7  30274.8  3724.56
    6481.28  50985  30643.4  3782.48
    6485.61  51215.9  31010.6  3834.93
    6490.03  51463.4  31406.2  3897.91
    6494.46  51712.3  31792.3  3949.41
    6498.9  51950.8  32187  4009.45
    6503.34  52180.8  32560.2  4060.02
    6507.79  52438.4  32958.8  4122.11
    6512.34  52641.4  33331  4182.73
    6516.8  52884  33719.7  4244.88
    6521.35  53143.1  34139.9  4309.57
    6525.92  53387.8  34542.6  4377.78
    6530.49  53632.9  34938.9  4441.52
    6535.07  53857.6  35351.6  4501.78
    6539.65  54070.8  35737.8  4562.58
    6544.25  54257.6  36114.6  4616.9
    6548.94  54483.8  36527.9  4673.76
    6553.54  54674.6  36907.7  4732.14
    6558.24  54923.9  37337.9  4797.06
    6562.95  55096.8  37727.7  4860.5
    6567.67  55370.2  38183.1  4930.47
    6572.4  55624.1  38621.9  4998.97
    6577.22  55839.5  39050.2  5074.99
    6581.96  56050.4  39472  5147.55
    6586.79  56339.9  39955.4  5224.64
    6591.55  56551.9  40380.3  5292.25
    6596.4  56747.4  40818.6  5368.4
    6601.26  57005.5  41306.5  5447.07
    6606.12  57238.1  41775.9  5520.28
    6611.09  57455.2  42225.8  5593.01
    6615.97  57706.8  42708.2  5674.27
    6620.95  57938  43195.2  5747.06
    6625.85  58145.6  43640.6  5817.37
    6630.85  58426.8  44182.6  5902.22
    6635.85  58606.6  44629  5982.6
    6640.87  58814.8  45119  6062.5
    6645.89  59080.6  45637.5  6149.94
    6650.92  59287.9  46139.4  6232.9
    6655.96  59509.8  46628.9  6317.39
    6661.1  59734.1  47170.9  6409.41
    6666.15  59939  47674.5  6492.96
    6671.31  60108.4  48159.5  6573.04
    6676.47  60316.4  48689  6661.65
    6681.64  60514.8  49219.1  6750.78
    6686.82  60687.8  49715.7  6841.45
    6692.01  60727.4  50119.7  6915.65
    6697.3  60625.4  50405.3  6967.37
    6702.51  57846  48370.4  6710.62
    6707.72  63076.1  53192  7391.4
    6713.04  62497.7  53116.1  7395.71
    6718.37  62444.8  53478.7  7466.56
    6723.7  62379.5  53824.9  7533.92
    6729.05  62451.7  54273.5  7618.82
    6734.4  62477.4  54696.7  7700.24
    6739.77  63144.7  55689.3  7859.2
    6745.14  62988.5  55954.5  7921.69
    6750.61  62163.8  55703.2  7907.7
    6756  62502.6  56371.4  8026.24
    6761.5  62781  57003.1  8136.31
    6766.91  63963.9  58537.3  8377.91
    6772.42  62665.3  57751.1  8287.04
    6777.94  64500.2  59890.3  8614.69
    6783.48  64543.7  60369  8708.89
    6789.02  64583.6  60854.3  8800.61
    6794.57  64603.2  61299.1  8888.85
    6800.23  64247.2  61432.4  8934.62
    6805.8  61980.8  59702.1  8711.93
    6811.48  66831.8  64883.4  9487.76
    6817.07  66338.5  64842.3  9508.11
    6822.77  66354.6  65357.6  9604.01
    6828.47  66432.3  65916.4  9714.43
    6834.19  66517.5  66499.8  9830.38
    6839.92  66661.2  67122.6  9943.85
    6845.66  66795.4  67766  10061.9
    6851.4  66964.2  68440.9  10181.4
    6857.16  67088.5  69105.2  10310.5
    6863.03  67190.3  69721.1  10429.1
    6868.81  67324.7  70397.5  10561.2
    6874.7  67520.5  71145.5  10699.8
    6880.5  67756.9  71950.9  10843
    6886.41  67898.9  72636.8  10979.7
    6892.33  68034.3  73334.3  11115.9
    6898.26  68188.3  74059.2  11261.7
    6904.2  68364.8  74806.7  11406
    6910.15  68464.8  75496.7  11542.8
    6916.11  68604.4  76225.2  11688.2
    6922.09  68628.5  76847.2  11803.1
    6928.18  68774.1  77581.7  11948.5
    6934.17  68921.2  78337.7  12100.4
    6940.28  69034.9  79071.2  12244.9
    6946.3  69111.1  79767.3  12384.9
    6952.43  69239.8  80531.8  12529.4
    6958.57  69339  81250.9  12672.5
    6964.62  69488.8  82036.4  12830.1
    6970.78  69632.1  82809.5  12984.2
    6976.96  69767.9  83601.1  13134.8
    6983.15  69864.2  84320.2  13284
    6989.35  70007.1  85137.8  13435.7
    6995.66  70102.5  85870  13592.9
    7001.88  70237.4  86648.6  13759.7
    7008.12  70288.9  87348.7  13907
    7014.47  70383.8  88110.4  14066.8
    7020.72  70474.3  88866.6  14220.1
    7027.1  70551.3  89645.3  14378
    7033.38  70634.9  90374.4  14532.4
    7039.77  70809  91243.1  14706.3
    7046.18  70880.6  91999.3  14870.8
    7052.6  71004.7  92843.1  15039.8
    7059.04  71076.3  93606.3  15202.3
    7065.48  71138.5  94358  15359.3
    7071.94  71248.2  95198.3  15539.9
    7078.41  71354.5  96029  15709
    7084.9  71370.2  96739.3  15869.7
    7091.39  71505.5  97603.1  16055.8
    7097.9  71517.3  98316.4  16218.5
    7104.53  71583.6  99139.2  16394.7
    7111.06  71620.5  99902.5  16556.5