File: data/Cr/k2cro4_rt_001.xdi
# XDI/1.0
# Column.1: energy eV
# Column.2: i0
# Column.3: itrans
# Column.4: irefer
# Beamline.name: SSRL 2-3
# Beamline.notes: vert slits = 0.6mm
# Detector.I0: N2 15cm
# Detector.I1: N2 30cm
# Detector.I2: N2 15cm
# Element.edge: K
# Element.symbol: Cr
# Mono.d_spacing: 3.13550
# Mono.name: Si(111)
# Mono.notes: unfocused, detuned 75%, clockwise at E=5990eV
# Sample.formula: K2CrO4
# Sample.name: K2CrO4
# Sample.prep: powder on tape (5 layers)
# Sample.reference: Cr foil
# Sample.temperature: room temperature
# Scan.start_time: 1997-04-17 22:36:29
# ///
#    Note: mono d_spacing is nominal!
#     exafs to K16
#     396  E XMU XMUR I0
#-------------
#   energy   i0   itrans  irefer
    5759.99  25392.9  7338.5   934.7
    5769.98  25378.9  7498.5   960.7
    5780.01  25345.9  7651.5   987.7
    5790  25292.9  7805.5  1014.7
    5799.97  25263.9  7967.5  1042.7
    5810.03  25238.9  8133.5  1069.7
    5820  25203.9  8294.5  1097.7
    5830  25177.9  8467.5  1125.7
    5839.97  25140.9  8635.5  1155.7
    5849.98  25100.9  8802.5  1184.7
    5860.02  25061.9  8976.5  1213.7
    5870.02  25017.9  9147.5  1244.7
    5879.99  24978.9  9322.5  1276.7
    5890  24932.9  9499.5  1307.7
    5899.97  24876.9  9675.5  1339.7
    5909.98  24825.9  9855.5  1373.7
    5920.02  24769.9  10030.5  1404.7
    5930.03  24713.9  10206.5  1438.7
    5939.99  24669.9  10386.5  1471.7
    5950  24620.9  10566.5  1505.7
    5959.97  24583.9  10749.5  1538.7
    5969.97  24505.9  10920.5  1572.7
    5970.49  24510.9  10931.5  1574.7
    5971.01  24444.9  10907.5  1571.7
    5971.53  24319.9  10852.5  1560.7
    5971.97  24201.9  10813.5  1557.7
    5972.49  24172.9  10813.5  1557.7
    5973.01  24279.9  10873.5  1566.7
    5973.53  24450.9  10960.5  1577.7
    5973.98  24550.9  11015.5  1588.7
    5974.5  24584.9  11036.5  1590.7
    5975.02  24585.9  11045.5  1592.7
    5975.46  24565.9  11048.5  1591.7
    5975.98  24577.9  11063.5  1595.7
    5976.51  24599.9  11078.5  1597.7
    5977.03  24592.9  11084.5  1597.7
    5977.47  24583.9  11088.5  1598.7
    5977.99  24606.9  11107.5  1600.7
    5978.52  24628.9  11121.5  1603.7
    5979.04  24632.9  11138.5  1604.7
    5979.48  24619.9  11141.5  1607.7
    5980.01  24647.9  11165.5  1609.7
    5980.53  24652.9  11175.5  1611.7
    5980.97  24655.9  11183.5  1611.7
    5981.49  24645.9  11186.5  1612.7
    5982.02  24667.9  11207.5  1613.7
    5982.46  24640.9  11201.5  1614.7
    5982.99  24651.9  11214.5  1615.7
    5983.51  24641.9  11219.5  1616.7
    5984.03  24670.9  11235.5  1618.7
    5984.48  24683.9  11252.5  1620.7
    5985  24633.9  11229.5  1618.7
    5985.52  24483.9  11168.5  1608.7
    5985.97  24222.9  11047.5  1591.7
    5986.49  23528.9  10738.5  1547.7
    5987.02  22033.9  10059.5  1446.7
    5987.46  21310.9  9736.5  1397.7
    5987.99  22298.9  10183.5  1458.7
    5988.51  23275.9  10623.5  1517.7
    5989.03  23732.9  10822.5  1538.7
    5989.48  23982.9  10927.5  1543.7
    5990  24186.9  11000.5  1526.7
    5990.53  24275.9  11008.5  1484.7
    5990.98  24315.9  10989.5  1445.7
    5991.5  24345.9  10922.5  1403.7
    5992.02  24370.9  10795.5  1358.7
    5992.47  24383.9  10587.5  1313.7
    5992.99  24386.9  10168.5  1241.7
    5993.52  24393.9  9342.5  1126.7
    5993.97  24418.9  8123.5   969.7
    5994.49  24423.9  6444.5   760.7
    5995.02  24412.9  5976.5   699.7
    5995.47  24410.9  7013.5   816.7
    5995.99  24415.9  8719.5  1012.7
    5996.51  24440.9  9827.5  1141.7
    5996.96  24410.9  10263.5  1193.7
    5997.49  24405.9  10517.5  1221.7
    5998.01  24404.9  10649.5  1228.7
    5998.54  24425.9  10704.5  1221.7
    5998.99  24403.9  10679.5  1201.7
    5999.51  24386.9  10606.5  1169.7
    6000.04  24382.9  10494.5  1134.7
    6000.49  24353.9  10343.5  1097.7
    6001.01  24230.9  10113.5  1050.7
    6001.46  24080.9  9916.5  1012.7
    6001.99  24028.9  9782.5   981.7
    6002.51  24110.9  9766.5   966.7
    6002.96  24232.9  9829.5   960.7
    6003.49  24347.9  9917.5   957.7
    6004.02  24385.9  9962.5   951.7
    6004.47  24394.9  9968.5   944.7
    6004.99  24382.9  9929.5   930.7
    6005.52  24358.9  9834.5   913.7
    6005.97  24376.9  9731.5   895.7
    6006.5  24372.9  9566.5   874.7
    6007.02  24372.9  9343.5   845.7
    6007.47  24354.9  9072.5   813.7
    6008  24365.9  8670.5   770.7
    6008.53  24368.9  8173.5   718.7
    6008.98  24356.9  7740.5   676.7
    6009.5  24351.9  7304.5   630.7
    6010.03  24367.9  6955.5   594.7
    6010.94  24356.7  6557.26   556.465
    6011.84  24349  6384.52   543.758
    6012.82  24343.8  6319.3   550.581
    6013.8  24351.1  6346.58   566.932
    6014.78  24362  6399.38   584.812
    6015.76  24355.4  6395.69   590.222
    6016.81  24347.3  6310.5   582.16
    6017.8  24372.7  6178.84   567.627
    6018.93  24391.7  6055.68   547.624
    6019.99  24416.2  6007.02   538.148
    6021.12  24414.2  5938.88   529.203
    6022.18  24433.8  5841.25   520.786
    6023.39  24476.8  5752.13   516.897
    6024.52  24521.4  5735.52   519.539
    6025.73  24576.6  5768.43   522.708
    6026.87  24600.2  5782.84   520.408
    6028.16  24622.4  5774.76   514.635
    6029.37  24661.1  5759.19   509.392
    6030.58  24700.3  5751.13   506.678
    6031.87  24720.1  5748.59   505.493
    6033.16  24760.4  5749.55   502.837
    6034.53  24801.2  5737.03   501.709
    6035.82  24856.5  5698.01   498.111
    6037.19  24891.4  5626.5   492.042
    6038.56  24920.8  5554.51   484.501
    6040  24975.7  5519.03   479.49
    6041.37  25031.1  5538.05   480.008
    6042.82  25090.1  5628.59   488.054
    6044.26  25132.6  5774.64   501.63
    6045.71  25177.6  5951.2   519.734
    6047.24  25246.1  6172.27   541.368
    6048.76  25318.2  6347.85   559.53
    6050.29  25395.8  6457.93   573.221
    6051.82  25447.9  6571.53   588.442
    6053.42  25506.5  6703.64   607.191
    6054.95  25570.7  6808.26   623.469
    6056.56  25637.4  6900.39   638.277
    6058.24  25712.6  7009.03   653.613
    6059.85  25764.4  7119.19   667.478
    6061.53  25795.6  7227.85   680.872
    6063.22  25838.4  7325.02   691.795
    6064.91  25908.8  7431.71   699.248
    6066.68  25998.6  7530.9   703.229
    6068.36  26088  7607.61   703.738
    6070.13  26159.9  7654.81   698.777
    6071.9  26254.3  7692.54   693.345
    6073.75  26337.3  7716.78   690.442
    6075.52  26433.8  7736.52   698.068
    6077.37  26522.8  7751.78   707.222
    6079.22  26611.3  7768.54   719.906
    6081.15  26708.4  7792.82   734.119
    6083  26813  7827.61   748.861
    6084.93  26907.1  7871.9   761.131
    6086.87  27013.7  7920.71   770.931
    6088.8  27114.9  7982.03   773.26
    6090.81  27220.6  8048.86   768.117
    6092.83  27325.8  8112.2   756.503
    6094.84  27438.5  8163.06   745.419
    6096.86  27520.8  8202.41   734.864
    6098.88  27651.6  8246.28   726.837
    6100.98  27778.9  8282.66   723.339
    6103.07  27908.7  8321.56   728.371
    6105.18  28027.1  8346.96   741.931
    6107.28  28140  8371.87   760.02
    6109.46  28243.4  8402.29   781.638
    6111.64  28370.4  8445.23   802.786
    6113.83  28437.8  8462.67   819.461
    6116.01  28572.8  8498.63   829.668
    6118.28  28707.4  8529.09   837.401
    6120.47  28840.4  8562.07   837.664
    6122.74  28974  8605.56   840.457
    6125.01  29107.1  8666.55   843.777
    6127.36  29245.7  8746.06   855.627
    6129.64  29380.9  8835.08   869.006
    6131.99  29498.6  8942.6   884.914
    6134.35  29646.8  9065.64   902.35
    6136.79  29769.5  9189.18   917.315
    6139.15  29902.8  9316.24   930.81
    6141.59  30051.6  9446.81   942.835
    6144.04  30190.9  9581.9   953.388
    6146.48  30363.7  9717.49   964.471
    6148.93  30517.1  9843.59   972.08
    6151.46  30663  9976.19   981.219
    6153.99  30798.4  10097.3   990.889
    6156.53  30987.3  10233.9  1000.09
    6159.06  31107.8  10354.1  1007.81
    6161.6  31275.8  10474.7  1010.07
    6164.22  31436.3  10608.9  1012.85
    6166.84  31607.3  10742.6  1017.17
    6169.47  31763.9  10872.8  1035.01
    6172.1  31931  11014.5  1060.38
    6174.81  32102.6  11149.7  1088.28
    6177.52  32269.8  11290.4  1117.71
    6180.23  32428.5  11422.6  1144.67
    6182.95  32598.7  11549.3  1168.15
    6185.67  32777.4  11681.6  1187.17
    6188.47  32964.6  11821.3  1205.71
    6191.27  33155.4  11952.6  1221.79
    6194.08  33329.7  12076.4  1238.39
    6196.89  33491.5  12195.7  1253.52
    6199.7  33665.9  12321.5  1272.19
    6202.6  33845.8  12443.8  1289.37
    6205.5  34000.2  12552.6  1307.09
    6208.4  34179.1  12680.9  1326.34
    6211.3  34379.6  12818.8  1349.12
    6214.21  34599.6  12956.1  1372.42
    6217.2  34796.1  13092  1389.26
    6220.2  34973.1  13224.4  1402.62
    6223.19  35175.7  13361.2  1410.52
    6226.19  35363.8  13494.6  1417.94
    6229.2  35578.4  13636.5  1423.89
    6232.28  35792.5  13783  1431.37
    6235.38  35793.2  13850.9  1428.38
    6238.47  36264.4  14106.3  1444.91
    6241.56  35467.1  13866.3  1415.98
    6244.75  36405.4  14307.7  1457.58
    6247.85  36677.1  14491.7  1479.7
    6251.04  36923.4  14670.2  1511.35
    6254.23  37126.2  14841.1  1553.54
    6257.43  37331.6  15012.6  1592.25
    6260.71  37536.5  15195.6  1628.49
    6263.91  37768.9  15382.2  1658.26
    6267.2  37987.8  15572.2  1682.55
    6270.49  38200.2  15770.7  1706.38
    6273.79  38411.2  15961.8  1730.74
    6277.17  38630.7  16169.3  1757.62
    6280.48  38841.8  16367.4  1787.04
    6283.86  39070.3  16588  1815.98
    6287.26  39267.4  16792.1  1840.45
    6290.65  39486  17004.7  1865.45
    6294.06  39739.1  17235.8  1897.98
    6297.54  39951.8  17455.4  1929.04
    6300.95  40155  17669.5  1960.63
    6304.45  40370.7  17889.2  1991.75
    6307.95  40608.9  18132.3  2024.39
    6311.54  40817.7  18350  2049.57
    6315.05  41033  18571.2  2074.27
    6318.56  41278.8  18812.9  2100.5
    6322.16  41468.1  19029.1  2121.26
    6325.77  41721  19278.8  2141.56
    6329.38  41956.4  19516  2166.37
    6333.07  42200.3  19759.7  2195.72
    6336.69  42425.8  19997.9  2223.6
    6340.4  42649.7  20229.7  2256.01
    6344.11  42899.2  20485  2291.94
    6347.83  43113.3  20717.7  2328.41
    6351.55  43355.8  20969  2366.4
    6355.27  43592.9  21207.8  2402.92
    6359.09  43835.5  21464.1  2444.97
    6362.82  44059.6  21713.9  2485.55
    6366.65  44320.3  21973.2  2530.66
    6370.47  44522.4  22212.1  2572.3
    6374.31  44764.1  22482.4  2607.47
    6378.23  45000.4  22743.2  2645.16
    6382.07  45244.1  23004.6  2679.39
    6386.01  45466.4  23267.5  2716.15
    6389.95  45673.2  23520.9  2752.43
    6393.89  45930.5  23802.8  2794.24
    6397.84  46193.4  24101.2  2834.58
    6401.88  46435.8  24381.1  2872.45
    6405.84  46658.7  24656.5  2904.85
    6409.89  46890.1  24942.4  2945.78
    6413.95  47150.1  25245.9  2987.23
    6418.01  47389.6  25547.8  3033.22
    6422.08  47622.6  25855.3  3077.73
    6426.15  47799.1  26134.3  3116.78
    6430.32  48089.2  26484.8  3165.35
    6434.4  48322.8  26791.8  3204.45
    6438.58  48560.9  27118.3  3245.08
    6442.76  48797.6  27453.3  3287.24
    6446.95  49051.7  27796.8  3338.93
    6451.23  49257.4  28124.9  3388.15
    6455.43  49500.7  28471.4  3443.89
    6459.72  49784.4  28842.5  3502.17
    6463.93  50026.7  29208  3559.97
    6468.24  50250.5  29562.1  3617.31
    6472.55  50471.8  29903.7  3665.17
    6476.95  50750.7  30310.8  3723.56
    6481.28  50957  30643.4  3778.48
    6485.61  51206.9  31021.6  3839.93
    6490.03  51441.4  31404.2  3895.91
    6494.46  51686.3  31788.3  3950.41
    6498.9  51927.8  32176  4003.45
    6503.34  52182.8  32575.2  4059.02
    6507.79  52409.4  32950.8  4118.11
    6512.34  52657.4  33358  4184.73
    6516.8  52860  33720.7  4244.89
    6521.35  53127.1  34134.9  4314.57
    6525.92  53386.8  34565.6  4377.78
    6530.49  53609.9  34961.9  4445.51
    6535.07  53862.6  35376.6  4510.78
    6539.65  54088.8  35773.8  4573.58
    6544.25  54286.6  36161.6  4629.9
    6548.94  54488.8  36546.9  4684.76
    6553.54  54666.6  36922.7  4739.14
    6558.24  54940.9  37366.9  4805.05
    6562.95  55130.8  37764.7  4870.5
    6567.67  55391.2  38205.1  4941.47
    6572.4  55643.1  38663.9  5012.97
    6577.22  55850.5  39083.2  5080.99
    6581.96  56059.4  39510.1  5151.55
    6586.79  56359.9  40001.4  5230.64
    6591.55  56573.9  40427.3  5298.26
    6596.4  56787.4  40873.6  5374.4
    6601.26  57025.5  41325.5  5447.07
    6606.12  57245.1  41780.9  5521.27
    6611.09  57486.2  42263.8  5600
    6615.97  57728.8  42745.2  5680.26
    6620.95  57976  43227.2  5755.06
    6625.85  58154.6  43669.6  5827.37
    6630.85  58423.8  44195.5  5917.22
    6635.85  58607.6  44656  5990.6
    6640.87  58854.8  45169  6084.5
    6645.89  59063.6  45649.5  6166.94
    6650.92  59240.9  46120.4  6243.9
    6655.96  59486.8  46658.9  6339.39
    6661.1  59707.1  47175.9  6430.41
    6666.15  59909  47665.5  6513.96
    6671.31  60106.4  48182.5  6597.04
    6676.47  60319.4  48710  6680.65
    6681.64  60488.8  49210.1  6764.79
    6686.82  60676.8  49729.7  6850.45
    6692.01  60739.4  50157.7  6924.64
    6697.3  60622.4  50420.3  6979.37
    6702.51  57784  48325.4  6702.62
    6707.72  63055.1  53186  7394.4
    6713.04  62549.7  53187.1  7411.71
    6718.37  62522.8  53554.7  7485.56
    6723.7  62469.5  53901.9  7554.92
    6729.05  62555.7  54369.5  7635.82
    6734.4  62519.4  54750.7  7706.24
    6739.77  63201.7  55738.3  7870.2
    6745.14  63018.5  56002.5  7928.69
    6750.61  62125.8  55679.2  7905.7
    6756  62328.6  56224.4  8007.24
    6761.5  62836  57078.1  8147.32
    6766.91  63988.9  58566.3  8386.91
    6772.42  62610.3  57721.1  8284.04
    6777.94  64527.2  59946.3  8622.7
    6783.48  64593.7  60441  8720.89
    6789.02  64563.6  60854.3  8809.6
    6794.57  64577.2  61305.1  8896.85
    6800.23  64266.2  61472.4  8946.62
    6805.8  61992.8  59744.1  8722.92
    6811.48  66898.8  64947.4  9504.76
    6817.07  66327.5  64843.3  9511.11
    6822.77  66305.6  65316.6  9602
    6828.47  66350.3  65845.4  9702.42
    6834.19  66470.5  66449.8  9824.37
    6839.92  66620.2  67093.6  9937.85
    6845.66  66791.4  67776  10059.9
    6851.4  66907.2  68416.9  10188.4
    6857.16  67078.5  69101.2  10316.5
    6863.03  67139.3  69676.1  10427
    6868.81  67267.7  70354.5  10561.2
    6874.7  67384.5  71011.5  10678.8
    6880.5  67576.9  71769.9  10819
    6886.41  67696.9  72445.8  10956.7
    6892.33  67852.3  73150.3  11092.9
    6898.26  68003.3  73873.2  11234.7
    6904.2  68098.8  74537.7  11369
    6910.15  68227.8  75260.7  11510.8
    6916.11  68319.4  75935.2  11646.2
    6922.09  68365.5  76566.2  11779.1
    6928.18  68453.1  77244.7  11915.5
    6934.17  68724.2  78132.7  12082.4
    6940.28  68777.9  78791.2  12221.9
    6946.3  68897.1  79541.3  12372.9
    6952.43  68969.8  80239.8  12514.4
    6958.57  69130  81019.9  12666.5
    6964.62  69224.8  81745.4  12811.1
    6970.78  69370.1  82521.5  12965.2
    6976.96  69566.9  83387.1  13132.8
    6983.15  69643.2  84078.2  13273
    6989.35  69740.1  84793.8  13420.7
    6995.66  69777.5  85490  13562.9
    7001.88  69861.4  86204.6  13718.7
    7008.12  69930.9  86915.7  13863
    7014.47  70101.8  87783.4  14032.8
    7020.72  70205.3  88552.6  14190.1
    7027.1  70283.3  89306.2  14348
    7033.38  70369.9  90074.4  14501.4
    7039.77  70445  90825.1  14659.3
    7046.18  70527.6  91599.3  14824.8
    7052.6  70643.7  92396.1  14998.8
    7059.04  70736.3  93178.3  15164.3
    7065.48  70829.5  93982  15330.4
    7071.94  70843.2  94682.3  15482.9
    7078.41  70986.5  95553  15672
    7084.9  71025.2  96299.3  15835.7
    7091.39  71135.5  97150.1  16021.8
    7097.9  71178.3  97896.4  16188.5
    7104.53  71169.6  98609.2  16340.8
    7111.06  71187.5  99344.5  16507.5