File: data/Cr/k2cro4_15K_001.xdi
# XDI/1.0
# Column.1: energy eV
# Column.2: i0
# Column.3: itrans
# Column.4: irefer
# Beamline.name: SSRL 2-3
# Beamline.notes: vert slits = 0.6mm
# Detector.I0: N2 15cm
# Detector.I1: N2 30cm
# Detector.I2: N2 15cm
# Element.edge: K
# Element.symbol: Cr
# Mono.d_spacing: 3.13550
# Mono.name: Si(111)
# Mono.notes: unfocused, detuned 75%, clockwise at E=5990eV
# Sample.formula: K2CrO4
# Sample.name: K2CrO4
# Sample.prep: powder on tape (4 layers)
# Sample.reference: Cr foil
# Sample.temperature: 15K
# Scan.start_time: 1997-04-18 11:01:58
# ///
#    Note: mono d_spacing is nominal!
#     exafs to K16
#     396  E XMU XMUR I0
#-------------
#   energy   i0   itrans  irefer
    5759.99  173904  3398.7   435.3
    5769.98  173174  3464.7   445.3
    5780.01  172642  3536.7   460.3
    5790  171910  3603.7   470.3
    5799.97  171250  3677.7   483.3
    5810.03  170628  3749.7   494.3
    5820  169896  3820.7   508.3
    5830  169218  3895.7   519.3
    5839.97  168587  3968.7   532.3
    5849.98  167974  4046.7   545.3
    5860.02  167279  4123.7   558.3
    5870.02  166651  4201.7   572.3
    5879.99  165858  4277.7   588.3
    5890  165270  4357.7   601.3
    5899.97  164478  4438.7   615.3
    5909.98  163731  4516.7   629.3
    5920.02  162936  4590.7   645.3
    5930.03  162194  4669.7   660.3
    5939.99  161492  4749.7   675.3
    5950  160656  4825.7   689.301
    5959.97  159962  4906.7   705.3
    5969.97  159083  4976.7   718.3
    5970.49  159133  4983.7   719.301
    5971.01  158827  4978.7   720.301
    5971.53  158400  4968.7   720.3
    5971.97  157698  4952.7   716.3
    5972.49  156629  4925.7   713.3
    5973.01  156380  4919.7   712.3
    5973.53  157707  4965.7   718.3
    5973.98  158880  5007.7   723.3
    5974.5  159284  5026.7   727.3
    5975.02  159358  5032.7   728.3
    5975.46  159156  5028.7   728.3
    5975.98  159208  5036.7   729.3
    5976.51  159261  5040.7   730.3
    5977.03  159166  5043.7   730.3
    5977.47  159049  5047.7   732.3
    5977.99  158976  5048.7   732.3
    5978.52  159042  5051.7   732.3
    5979.04  158925  5055.7   731.3
    5979.48  158846  5055.7   732.3
    5980.01  158928  5062.7   735.3
    5980.53  159068  5072.7   736.3
    5980.97  158940  5070.7   736.299
    5981.49  158892  5074.7   735.3
    5982.02  158933  5080.7   735.3
    5982.46  159025  5084.7   737.3
    5982.99  159005  5089.7   737.301
    5983.51  158948  5091.7   737.3
    5984.03  159083  5101.7   739.3
    5984.48  159193  5105.7   740.301
    5985  159072  5107.7   740.3
    5985.52  158701  5098.7   739.3
    5985.97  158031  5077.7   737.3
    5986.49  155027  4981.7   721.3
    5987.02  148947  4788.7   692.3
    5987.46  141396  4545.7   658.3
    5987.99  140050  4504.7   651.3
    5988.51  146262  4706.7   677.3
    5989.03  150451  4838.7   693.3
    5989.48  152938  4915.7   702.3
    5990  154791  4967.7   702.299
    5990.53  155654  4983.7   688.3
    5990.98  155846  4973.7   671.3
    5991.5  156132  4955.7   651.3
    5992.02  156330  4916.7   631.3
    5992.47  156453  4851.7   615.3
    5992.99  156256  4709.7   586.3
    5993.52  156467  4456.7   548.3
    5993.97  156471  4076.7   497.3
    5994.49  156500  3330.7   401.3
    5995.02  156385  2626.7   315.3
    5995.47  156437  2627.7   310.3
    5995.99  156486  3313.7   391.3
    5996.51  156382  4050.7   475.3
    5996.96  156419  4424.7   517.3
    5997.49  156418  4644.7   543.3
    5998.01  156324  4751.7   554.3
    5998.54  156322  4804.7   555.3
    5998.99  156117  4811.7   552.3
    5999.51  156187  4801.7   539.3
    6000.04  156124  4767.7   524.3
    6000.49  155896  4709.7   509.3
    6001.01  155368  4609.7   487.3
    6001.46  154673  4515.7   470.3
    6001.99  153639  4410.7   450.3
    6002.51  153567  4359.7   437.3
    6002.96  154567  4376.7   434.3
    6003.49  155832  4425.7   434.3
    6004.02  156182  4462.7   432.3
    6004.47  156082  4473.7   430.3
    6004.99  155909  4471.7   424.3
    6005.52  155951  4459.7   419.3
    6005.97  156009  4426.7   413.3
    6006.5  155863  4354.7   403.3
    6007.02  155792  4269.7   392.3
    6007.47  155719  4179.7   379.3
    6008  155766  4035.7   363.3
    6008.53  155522  3822.7   339.3
    6008.98  155534  3607.7   317.3
    6009.5  155570  3345.7   292.3
    6010.03  155655  3121.7   270.3
    6010.94  155517  2862.46   244.064
    6011.84  155371  2731.73   232.358
    6012.82  155505  2702.51   235.181
    6013.8  155496  2710.81   241.534
    6014.78  155223  2748.62   250.415
    6015.76  155177  2773.94   255.826
    6016.81  155322  2762.78   255.765
    6017.8  155470  2723.13   250.234
    6018.93  155347  2616   238.233
    6019.99  155317  2563.38   232.76
    6021.12  155476  2569.27   231.817
    6022.18  155679  2557.68   229.402
    6023.39  155754  2494.6   225.518
    6024.52  155701  2442.03   222.162
    6025.73  155899  2444.98   222.335
    6026.87  156217  2454.44   223.038
    6028.16  156330  2459.42   221.27
    6029.37  156300  2441.9   218.031
    6030.58  156473  2423.91   213.321
    6031.87  156688  2426.42   214.141
    6033.16  156947  2439.45   214.49
    6034.53  157062  2448.99   214.367
    6035.82  157195  2448.05   213.774
    6037.19  157497  2422.62   213.711
    6038.56  157681  2380.7   209.176
    6040  157983  2344.3   205.171
    6041.37  158148  2332.41   203.695
    6042.82  158311  2353.03   205.748
    6044.26  158629  2405.17   210.331
    6045.71  159041  2482.82   218.442
    6047.24  159325  2579.99   229.083
    6048.76  159452  2675.66   238.252
    6050.29  159706  2731.85   242.952
    6051.82  160123  2783.56   250.181
    6053.42  160681  2843.78   258.938
    6054.95  160958  2884.51   265.225
    6056.56  161302  2919.76   272.041
    6058.24  161457  2955.52   278.386
    6059.85  161902  3011.79   286.26
    6061.53  161988  3072.58   292.664
    6063.22  162208  3132.88   297.597
    6064.91  162573  3190.7   305.059
    6066.68  162897  3241.03   309.05
    6068.36  163397  3285.87   308.57
    6070.13  163791  3317.22   307.621
    6071.9  164383  3326.09   305.199
    6073.75  164799  3319.47   302.307
    6075.52  165207  3311.37   303.944
    6077.37  165707  3308.78   307.111
    6079.22  166194  3301.7   309.807
    6081.15  166847  3299.14   314.031
    6083  167347  3295.09   319.786
    6084.93  167746  3306.55   322.069
    6086.87  168349  3326.53   327.881
    6088.8  169033  3358.02   331.223
    6090.81  169595  3399.03   330.094
    6092.83  170205  3449.54   328.494
    6094.84  170731  3492.58   324.423
    6096.86  171415  3529.12   319.882
    6098.88  171924  3548.18   316.87
    6100.98  172605  3563.76   315.387
    6103.07  173100  3572.84   315.433
    6105.18  173717  3579.44   322.008
    6107.28  174561  3577.55   328.112
    6109.46  175305  3567.18   335.746
    6111.64  175727  3565.32   342.909
    6113.83  176349  3581.98   350.601
    6116.01  177044  3603.15   357.822
    6118.28  177849  3619.83   360.573
    6120.47  178516  3629.02   360.853
    6122.74  179296  3631.73   359.662
    6125.01  180068  3639.95   361
    6127.36  180826  3664.69   364.868
    6129.64  181645  3706.94   370.264
    6131.99  182206  3752.7   377.19
    6134.35  183103  3812.98   387.645
    6136.79  183615  3883.77   395.629
    6139.15  184435  3965.07   403.143
    6141.59  185106  4030.89   409.185
    6144.04  185993  4087.22   412.757
    6146.48  186683  4133.07   415.858
    6148.93  187646  4180.42   419.488
    6151.46  188601  4234.3   421.648
    6153.99  189376  4290.68   425.336
    6156.53  190040  4333.59   429.554
    6159.06  190883  4374   431.302
    6161.6  191626  4418.92   430.578
    6164.22  192320  4460.36   431.383
    6166.84  193283  4510.31   430.718
    6169.47  194059  4560.79   437.582
    6172.1  194842  4617.77   447.975
    6174.81  195983  4693.26   460.897
    6177.52  196615  4758.27   474.349
    6180.23  197497  4834.79   488.329
    6182.95  198531  4902.83   501.839
    6185.67  199134  4947.37   507.878
    6188.47  200184  4998.44   517.447
    6191.27  201079  5047.01   523.544
    6194.08  201805  5095.1   529.17
    6196.89  202931  5150.7   538.327
    6199.7  203855  5194.82   543.012
    6202.6  204229  5229.45   551.227
    6205.5  205212  5278.6   558.97
    6208.4  206110  5326.25   567.243
    6211.3  207058  5373.42   577.044
    6214.21  208327  5428.11   585.376
    6217.2  209226  5475.31   589.236
    6220.2  210295  5534.02   596.625
    6223.19  211149  5592.25   600.544
    6226.19  212208  5653.99   601.992
    6229.2  213215  5714.24   604.97
    6232.28  214026  5767.01   604.477
    6235.38  214541  5819.28   608.512
    6238.47  217006  5913.08   614.076
    6241.56  212781  5820.38   603.171
    6244.75  216485  5946.21   615.794
    6247.85  218603  6040.54   626.946
    6251.04  219870  6110.39   639.628
    6254.23  220868  6178.75   653.839
    6257.43  221733  6242.63   668.579
    6260.71  222930  6326.02   683.848
    6263.91  223864  6402.92   698.646
    6267.2  224767  6480.33   706.974
    6270.49  225884  6565.26   715.831
    6273.79  226931  6643.7   728.217
    6277.17  227861  6722.66   739.132
    6280.48  229062  6803.13   749.576
    6283.86  230051  6875.12   758.551
    6287.26  230989  6946.61   766.053
    6290.65  232018  7026.63   776.086
    6294.06  233129  7122.15   784.645
    6297.54  233889  7207.19   799.738
    6300.95  235122  7302.74   813.357
    6304.45  236165  7397.81   826.506
    6307.95  237128  7494.39   839.184
    6311.54  238213  7593.48   852.392
    6315.05  239416  7687.09   863.128
    6318.56  240371  7764.21   871.395
    6322.16  241188  7841.84   878.188
    6325.77  242282  7935.99   884.513
    6329.38  243454  8032.65   894.366
    6333.07  244378  8136.83   906.749
    6336.69  245551  8236.51   919.661
    6340.4  246463  8328.72   929.102
    6344.11  247636  8419.43   945.073
    6347.83  248562  8507.65   957.571
    6351.55  249528  8601.4   972.6
    6355.27  250570  8693.65   988.158
    6359.09  251316  8777.43  1004.24
    6362.82  252624  8879.71  1020.86
    6366.65  253692  8975.51  1036.01
    6370.47  254186  9050.82  1049.68
    6374.31  255577  9160.64  1063.88
    6378.23  256670  9262.98  1078.62
    6382.07  257463  9360.83  1088.88
    6386.01  258519  9473.19  1103.67
    6389.95  259109  9567.07  1116.99
    6393.89  260045  9673.46  1130.84
    6397.84  261207  9776.37  1147.22
    6401.88  262193  9879.79  1160.13
    6405.84  263055  9977.72  1174.57
    6409.89  263854  10079.2  1190.53
    6413.95  264895  10190.1  1206.03
    6418.01  265576  10284.6  1220.05
    6422.08  267109  10424.6  1241.61
    6426.15  268382  10553.1  1258.69
    6430.32  269315  10668.1  1274.3
    6434.4  270287  10795.6  1292.45
    6438.58  271248  10925.7  1304.12
    6442.76  271968  11039.2  1323.32
    6446.95  272972  11172.3  1342.05
    6451.23  273957  11301.9  1363.31
    6455.43  274791  11417  1382.09
    6459.72  275860  11562.6  1408.41
    6463.93  276486  11685.7  1424.26
    6468.24  277463  11828.3  1447.63
    6472.55  278375  11959.5  1469.54
    6476.95  279343  12097.2  1493.97
    6481.28  280024  12222.3  1515.93
    6485.61  281175  12370  1538.43
    6490.03  282215  12520.2  1559.45
    6494.46  283082  12659  1577
    6498.9  283744  12787.2  1595.08
    6503.34  284421  12924.9  1616.69
    6507.79  285241  13067.2  1636.83
    6512.34  285738  13189  1654.5
    6516.8  286753  13346.3  1680.69
    6521.35  287602  13493  1705.42
    6525.92  288632  13655.4  1733.67
    6530.49  289395  13797.2  1758.46
    6535.07  289914  13934.5  1780.77
    6539.65  290780  14082.4  1801.61
    6544.25  291114  14201.8  1822.98
    6548.94  291493  14328.6  1841.89
    6553.54  292251  14468  1864.32
    6558.24  292934  14615.9  1887.28
    6562.95  293558  14758.4  1910.77
    6567.67  294127  14903.3  1934.78
    6572.4  295073  15066.8  1959.33
    6577.22  295869  15226.7  1986.41
    6581.96  296333  15362.2  2010.01
    6586.79  297010  15521.2  2036.15
    6591.55  297755  15681.7  2057.81
    6596.4  298192  15825.7  2075
    6601.26  298657  15978.2  2105.73
    6606.12  299374  16136.3  2130.98
    6611.09  299705  16286.8  2153.76
    6615.97  300108  16439.9  2178.07
    6620.95  301138  16618.5  2210.91
    6625.85  301174  16751.6  2233.28
    6630.85  302103  16932.2  2260.18
    6635.85  302301  17078.3  2283.61
    6640.87  302634  17236  2312.56
    6645.89  303329  17420.1  2342.04
    6650.92  304292  17613.8  2376.06
    6655.96  304438  17766  2404.6
    6661.1  304946  17927.7  2436.67
    6666.15  305169  18076.9  2460.28
    6671.31  305659  18254.6  2488.41
    6676.47  305446  18386.8  2518.07
    6681.64  305619  18545.6  2546.26
    6686.82  305613  18696.9  2575.98
    6692.01  305257  18829.6  2599.23
    6697.3  303738  18884.9  2614.01
    6702.51  290402  18225.7  2529.31
    6707.72  326200  20615  2862.15
    6713.04  314620  20027.9  2789.51
    6718.37  312262  20031.2  2799.41
    6723.7  311988  20174.1  2820.83
    6729.05  311394  20305.4  2845.78
    6734.4  310104  20379.3  2864.26
    6739.77  315408  20904.7  2942.28
    6745.14  311779  20845.6  2947.82
    6750.61  307448  20686.1  2928.89
    6756  307582  20921  2970.48
    6761.5  314066  21536.5  3066.61
    6766.91  315710  21780.4  3108.27
    6772.42  308390  21453.9  3068.46
    6777.94  316963  22216.9  3192.17
    6783.48  316096  22330.4  3219.42
    6789.02  315111  22439.4  3239.19
    6794.57  314017  22552  3259.49
    6800.23  310715  22487  3262.32
    6805.8  298830  21840.6  3173.69
    6811.48  328342  24138.6  3511.58
    6817.07  322242  23896.2  3487
    6822.77  320957  23989.3  3508.95
    6828.47  319762  24099.9  3534.42
    6834.19  319568  24288.1  3571.43
    6839.92  319395  24482.7  3606.97
    6845.66  319145  24656.9  3642.04
    6851.4  319310  24868.6  3682.63
    6857.16  319149  25052.7  3718.76
    6863.03  318976  25249.4  3759.41
    6868.81  318798  25439.6  3798.59
    6874.7  319111  25680.4  3844.3
    6880.5  319396  25916.6  3893.54
    6886.41  319122  26108.4  3937.32
    6892.33  319029  26316.6  3975.61
    6898.26  318742  26512.4  4013.45
    6904.2  319030  26760.7  4056.8
    6910.15  318715  26957.5  4092.69
    6916.11  318925  27194.8  4134.11
    6922.09  318220  27368.7  4171.05
    6928.18  317797  27550  4211.53
    6934.17  318153  27815.9  4267.53
    6940.28  318341  28059.3  4323.06
    6946.3  317899  28256.1  4362.13
    6952.43  317858  28485.5  4409.72
    6958.57  318200  28749.4  4458.84
    6964.62  318175  28971.9  4507.49
    6970.78  318587  29263.8  4568.66
    6976.96  318252  29460.3  4610.37
    6983.15  318612  29740.2  4665.61
    6989.35  318245  29953.7  4706.38
    6995.66  317949  30163.7  4757.68
    7001.88  318161  30407.2  4817.5
    7008.12  317850  30627.3  4863.86
    7014.47  317973  30879.8  4918.74
    7020.72  317414  31069.9  4960.15
    7027.1  317272  31293.4  5009.09
    7033.38  317192  31544.5  5063.56
    7039.77  316962  31771.1  5114.57
    7046.18  316914  32024.2  5166.1
    7052.6  316782  32262.8  5217.16
    7059.04  316632  32508.9  5269.74
    7065.48  316372  32724.6  5319.86
    7071.94  316297  32981.7  5371.51
    7078.41  316231  33232.4  5426.68
    7084.9  316024  33461.6  5479.39
    7091.39  315874  33723.3  5524.62
    7097.9  315588  33958.5  5588.39
    7104.53  315399  34218.3  5644.67
    7111.06  315268  34466.5  5704.5