File: data/Cr/k2cr2o7_rt_003.xdi
# XDI/1.0
# Column.1: energy eV
# Column.2: i0
# Column.3: itrans
# Column.4: irefer
# Beamline.name: SSRL 2-3
# Beamline.notes: vert slits = 0.6mm
# Detector.I0: N2 15cm
# Detector.I1: N2 30cm
# Detector.I2: N2 15cm
# Element.edge: K
# Element.symbol: Cr
# Mono.d_spacing: 3.13550
# Mono.name: Si(111)
# Mono.notes: unfocused, detuned 75%, clockwise at E=5990eV
# Sample.formula: K2Cr2O7
# Sample.name: K2Cr2O7
# Sample.prep: powder on tape (6 layers)
# Sample.reference: Cr foil
# Sample.temperature: room temp
# Scan.start_time: 1997-04-17 18:36:45
# ///
#    Note: mono d_spacing is nominal!
#     exafs to K16
#     396  E XMU XMUR I0
#-------------
#   energy   i0   itrans  irefer
    5759.99  25720.9  8986.5  1142.7
    5769.98  25666.9  9157.5  1170.7
    5780.01  25627.9  9338.5  1201.7
    5790  25598.9  9526.5  1232.7
    5799.97  25559.9  9716.5  1265.7
    5810.03  25517.9  9901.5  1298.7
    5820  25471.9  10092.5  1332.7
    5830  25430.9  10285.5  1366.7
    5839.97  25357.9  10469.5  1398.7
    5849.98  25320.9  10666.5  1433.7
    5860.02  25276.9  10865.5  1469.7
    5870.02  25223.9  11065.5  1505.7
    5879.99  25167.9  11267.5  1542.7
    5890  25128.9  11475.5  1580.7
    5899.97  25065.9  11677.5  1616.7
    5909.98  25007.9  11873.5  1653.7
    5920.02  24942.9  12078.5  1692.7
    5930.03  24881.9  12280.5  1731.7
    5939.99  24803.9  12473.5  1767.7
    5950  24753.9  12681.5  1806.7
    5959.97  24688.9  12875.5  1843.7
    5969.97  24610.9  13071.5  1879.7
    5970.49  24593.9  13072.5  1881.7
    5971.01  24577.9  13073.5  1881.7
    5971.53  24514.9  13048.5  1878.7
    5971.97  24387.9  12986.5  1871.7
    5972.49  24262.9  12936.5  1862.7
    5973.01  24238.9  12935.5  1862.7
    5973.53  24357.9  13005.5  1874.7
    5973.98  24507.9  13094.5  1885.7
    5974.5  24627.9  13170.5  1897.7
    5975.02  24643.9  13187.5  1901.7
    5975.46  24639.9  13198.5  1902.7
    5975.98  24622.9  13203.5  1904.7
    5976.51  24630.9  13220.5  1907.7
    5977.03  24644.9  13233.5  1908.7
    5977.47  24645.9  13239.5  1911.7
    5977.99  24608.9  13229.5  1909.7
    5978.52  24633.9  13259.5  1913.7
    5979.04  24632.9  13267.5  1914.7
    5979.48  24626.9  13274.5  1916.7
    5980.01  24633.9  13287.5  1917.7
    5980.53  24617.9  13283.5  1918.7
    5980.97  24631.9  13303.5  1920.7
    5981.49  24614.9  13306.5  1920.7
    5982.02  24617.9  13311.5  1923.7
    5982.46  24626.9  13327.5  1927.7
    5982.99  24646.9  13346.5  1929.7
    5983.51  24630.9  13343.5  1927.7
    5984.03  24636.9  13354.5  1928.7
    5984.48  24654.9  13369.5  1931.7
    5985  24669.9  13380.5  1933.7
    5985.52  24611.9  13349.5  1928.7
    5985.97  24472.9  13279.5  1915.7
    5986.49  24079.9  13072.5  1883.7
    5987.02  23174.9  12587.5  1811.7
    5987.46  21832.9  11854.5  1705.7
    5987.99  21441.9  11643.5  1673.7
    5988.51  22610.9  12275.5  1759.7
    5989.03  23406.9  12692.5  1814.7
    5989.48  23744.9  12866.5  1830.7
    5990  24037.9  12996.5  1831.7
    5990.53  24179.9  13040.5  1804.7
    5990.98  24254.9  13028.5  1758.7
    5991.5  24285.9  12955.5  1696.7
    5992.02  24310.9  12801.5  1637.7
    5992.47  24332.9  12577.5  1583.7
    5992.99  24354.9  12073.5  1496.7
    5993.52  24349.9  11279.5  1376.7
    5993.97  24340.9  10408.5  1256.7
    5994.49  24393.9  8938.5  1064.7
    5995.02  24351.9  7246.5   854.701
    5995.47  24373.9  6741.5   789.7
    5995.99  24365.9  7910.5   922.7
    5996.51  24376.9  9814.5  1141.7
    5996.96  24359.9  10914.5  1269.7
    5997.49  24348.9  11644.5  1354.7
    5998.01  24360.9  12037.5  1398.7
    5998.54  24379.9  12251.5  1412.7
    5998.99  24350.9  12323.5  1407.7
    5999.51  24326.9  12330.5  1383.7
    6000.04  24337.9  12279.5  1351.7
    6000.49  24319.9  12173.5  1315.7
    6001.01  24254.9  11967.5  1264.7
    6001.46  24140.9  11753.5  1219.7
    6001.99  23986.9  11482.5  1169.7
    6002.51  23989.9  11285.5  1129.7
    6002.96  24064.9  11166.5  1104.7
    6003.49  24225.9  11084.5  1083.7
    6004.02  24316.9  11008.5  1063.7
    6004.47  24337.9  10941.5  1045.7
    6004.99  24343.9  10834.5  1025.7
    6005.52  24317.9  10667.5   999.7
    6005.97  24312.9  10478.5   975.7
    6006.5  24310.9  10207.5   940.7
    6007.02  24314.9  9910.5   903.7
    6007.47  24292.9  9655.5   873.7
    6008  24315.9  9358.5   838.7
    6008.53  24328.9  9001.5   798.7
    6008.98  24301.9  8656.5   760.7
    6009.5  24294.9  8243.5   718.701
    6010.03  24309.9  7845.5   676.7
    6010.94  24301.7  7242.26   613.465
    6011.84  24299  6823.52   577.758
    6012.82  24274.8  6551.3   564.581
    6013.8  24301.1  6413.58   565.932
    6014.78  24325  6309.38   573.812
    6015.76  24320.4  6215.69   572.222
    6016.81  24307.3  6146.51   565.16
    6017.8  24330.7  6102.83   560.627
    6018.93  24351.7  6088.67   550.624
    6019.99  24368.2  6100.02   547.148
    6021.12  24357.2  6113.88   546.203
    6022.18  24392.8  6116.25   544.786
    6023.39  24422.8  6072.13   543.897
    6024.52  24463.4  6001.52   540.539
    6025.73  24467.6  5919.43   537.708
    6026.87  24504.2  5864.83   529.408
    6028.16  24564.4  5811.76   520.635
    6029.37  24598.1  5768.19   510.392
    6030.58  24611.3  5720.13   504.678
    6031.87  24640.1  5684.59   498.493
    6033.16  24675.4  5666.55   492.837
    6034.53  24751.2  5675.02   493.709
    6035.82  24766.5  5677.01   495.111
    6037.19  24796.4  5688.5   495.042
    6038.56  24832.8  5712.51   495.501
    6040  24895.7  5763.03   498.49
    6041.37  24939.1  5820.06   500.008
    6042.82  24979.1  5901.59   509.054
    6044.26  25024.6  6004.64   519.63
    6045.71  25075.6  6114.19   529.734
    6047.24  25139.1  6249.26   545.368
    6048.76  25201.2  6394.84   559.53
    6050.29  25253.8  6489.93   573.221
    6051.82  25310.9  6589.53   586.442
    6053.42  25386.5  6744.64   607.191
    6054.95  25441.7  6899.26   628.469
    6056.56  25532.4  7007.4   646.277
    6058.24  25563.6  7178.03   668.612
    6059.85  25616.4  7281.18   683.478
    6061.53  25674.6  7366.85   694.872
    6063.22  25687.4  7428.02   701.795
    6064.91  25775.8  7502.71   708.249
    6066.68  25847.6  7572.9   709.229
    6068.36  25909  7633.6   706.738
    6070.13  26002.9  7696.82   705.777
    6071.9  26089.3  7761.54   701.345
    6073.75  26191.3  7825.78   701.442
    6075.52  26290.8  7881.52   709.068
    6077.37  26374.8  7929.78   723.222
    6079.22  26444.3  7967.54   735.906
    6081.15  26551.4  8007.82   750.119
    6083  26650  8038.61   764.862
    6084.93  26748.1  8070.91   779.131
    6086.87  26857.7  8105.72   787.931
    6088.8  26942.9  8131.04   788.261
    6090.81  27031.6  8159.86   780.116
    6092.83  27144.8  8206.2   767.503
    6094.84  27237.5  8249.05   753.419
    6096.86  27359.8  8303.42   743.864
    6098.88  27477.6  8352.28   735.837
    6100.98  27581.9  8398.66   732.338
    6103.07  27681.7  8436.55   735.371
    6105.18  27801.1  8481.96   748.931
    6107.28  27919  8527.87   769.02
    6109.46  28027.4  8569.3   789.638
    6111.64  28158.4  8619.23   814.786
    6113.83  28273.8  8661.68   833.462
    6116.01  28412.8  8713.63   847.667
    6118.28  28537.4  8764.09   856.401
    6120.47  28657.4  8819.06   861.664
    6122.74  28782  8877.56   864.456
    6125.01  28917.1  8942.55   869.777
    6127.36  29068.7  9020.05   880.626
    6129.64  29177.9  9088.07   892.006
    6131.99  29338.6  9178.61   906.915
    6134.35  29497.8  9283.63   921.349
    6136.79  29623.5  9386.19   935.316
    6139.15  29797.8  9504.25   945.811
    6141.59  29935.6  9620.82   956.834
    6144.04  30082.9  9742.89   968.387
    6146.48  30217.7  9865.48   978.47
    6148.93  30383.1  10001.6   986.08
    6151.46  30517  10135.2   993.219
    6153.99  30668.4  10274.3  1004.89
    6156.53  30802.3  10403.9  1016.08
    6159.06  30985.8  10553.1  1027.81
    6161.6  31120.8  10682.7  1031.07
    6164.22  31279.3  10814.9  1032.85
    6166.84  31455.3  10957.6  1038.17
    6169.47  31632.9  11095.8  1055.01
    6172.1  31787  11225.5  1079.38
    6174.81  31942.6  11358.7  1109.28
    6177.52  32103.8  11493.4  1134.71
    6180.23  32293.5  11633.6  1163.67
    6182.95  32444.7  11756.3  1187.15
    6185.67  32630.4  11899.6  1211.17
    6188.47  32793.6  12028.3  1229.71
    6191.27  32974.4  12166.6  1244.79
    6194.08  33135.7  12298.4  1263.39
    6196.89  33298.5  12423.7  1279.52
    6199.7  33498.9  12565.5  1299.19
    6202.6  33679.8  12703.8  1318.38
    6205.5  33854.2  12844.6  1336.09
    6208.4  34050.1  12990.9  1359.34
    6211.3  34256.6  13139.8  1382.12
    6214.21  34397.6  13269.1  1407.43
    6217.2  34596.1  13413  1427.26
    6220.2  34756.1  13547.4  1442.62
    6223.19  34955.7  13703.2  1452.52
    6226.19  35143.8  13850.6  1461.94
    6229.2  35345.4  14005.5  1469.89
    6232.28  35502.5  14135  1471.37
    6235.38  35622.2  14257.9  1475.38
    6238.47  35985.4  14472.3  1485.91
    6241.56  35301.1  14270.3  1461.98
    6244.75  36116.4  14674.7  1502.58
    6247.85  36370.1  14853.7  1525.7
    6251.04  36667.4  15055.2  1559.35
    6254.23  36859.2  15221.1  1594.54
    6257.43  37080.6  15392.6  1635.25
    6260.71  37298.5  15572.6  1675.49
    6263.91  37487.9  15746.2  1700.26
    6267.2  37662.8  15921.2  1720.55
    6270.49  37878.2  16112.7  1744.38
    6273.79  38091.2  16310.8  1770.74
    6277.17  38306.7  16509.3  1797.62
    6280.48  38497.8  16713.4  1827.04
    6283.86  38707.3  16924  1852.98
    6287.26  38929.4  17139.1  1876.45
    6290.65  39113  17342.7  1900.45
    6294.06  39324.1  17556.8  1930.98
    6297.54  39532.8  17778.4  1961.04
    6300.95  39732  17987.5  1995.63
    6304.45  39969.7  18227.2  2028.74
    6307.95  40183.9  18446.3  2060.39
    6311.54  40400.7  18669  2090.57
    6315.05  40617  18893.2  2116.27
    6318.56  40848.8  19133.9  2140.5
    6322.16  41043.1  19351.1  2161.26
    6325.77  41288  19599.8  2184.55
    6329.38  41499.4  19839  2209.38
    6333.07  41707.3  20075.7  2236.72
    6336.69  41944.8  20330.9  2264.6
    6340.4  42159.7  20577.7  2295.01
    6344.11  42396.2  20822  2333.94
    6347.83  42597.3  21063.7  2367.41
    6351.55  42821.8  21320  2410.4
    6355.27  43049.9  21578.8  2448.92
    6359.09  43237.5  21823.1  2485.97
    6362.82  43502.6  22097.9  2531.55
    6366.65  43740.3  22372.2  2577.66
    6370.47  43938.4  22625.1  2621.3
    6374.31  44166.1  22890.4  2662.47
    6378.23  44408.4  23165.2  2698.17
    6382.07  44611.1  23421.6  2733.39
    6386.01  44809.4  23683.5  2766.15
    6389.95  45056.2  23972.9  2807.43
    6393.89  45269.5  24235.8  2846.24
    6397.84  45466.4  24497.2  2882.58
    6401.88  45706.8  24789.1  2921.45
    6405.84  45942.7  25072.5  2959.85
    6409.89  46186.1  25373.4  3001.77
    6413.95  46408.1  25666.9  3040.23
    6418.01  46630.6  25954.8  3081.22
    6422.08  46834.6  26245.3  3126.73
    6426.15  46966.1  26497.3  3165.78
    6430.32  47177.2  26799.8  3203.35
    6434.4  47407.8  27112.8  3239.45
    6438.58  47656.9  27448.3  3282.08
    6442.76  47874.6  27775.3  3326.24
    6446.95  48119.7  28110.8  3374.93
    6451.23  48299.4  28432.9  3425.15
    6455.43  48466.7  28721.4  3474.89
    6459.72  48729.4  29086.5  3531.17
    6463.93  48994.7  29462  3588.98
    6468.24  49190.5  29797.1  3640.31
    6472.55  49384.8  30130.7  3690.17
    6476.95  49659.7  30507.8  3745.56
    6481.28  49871  30874.4  3803.48
    6485.61  50097.9  31250.6  3862.93
    6490.03  50298.4  31609.2  3918.91
    6494.46  50523.3  31986.3  3977.41
    6498.9  50764.8  32377  4029.45
    6503.34  50914.8  32711.2  4079.02
    6507.79  51171.4  33124.8  4137.11
    6512.34  51385.4  33519  4204.73
    6516.8  51603  33899.7  4264.89
    6521.35  51835.1  34315.9  4329.57
    6525.92  52057.8  34712.6  4390.77
    6530.49  52277.9  35116.9  4456.52
    6535.07  52474.6  35519.6  4519.78
    6539.65  52683.8  35923.8  4580.58
    6544.25  52875.6  36316.6  4638.9
    6548.94  53046.8  36710.9  4697.76
    6553.54  53181.6  37066.7  4749.15
    6558.24  53437.9  37525.9  4814.06
    6562.95  53632.8  37938.7  4883.5
    6567.67  53829.2  38346.1  4950.47
    6572.4  54021.1  38754.9  5019.97
    6577.22  54245.5  39183.2  5093
    6581.96  54391.4  39586.1  5157.56
    6586.79  54644.9  40046.4  5231.64
    6591.55  54891.9  40508.3  5306.25
    6596.4  55038.4  40914.6  5377.4
    6601.26  55221.5  41334.5  5444.07
    6606.12  55472.1  41830.9  5525.27
    6611.09  55681.2  42286.8  5599.01
    6615.97  55897.8  42753.2  5679.27
    6620.95  56082  43201.2  5750.06
    6625.85  56240.6  43625.6  5822.37
    6630.85  56520.8  44146.6  5903.22
    6635.85  56659.6  44584  5976.6
    6640.87  56851.8  45052  6056.5
    6645.89  57091.6  45548.5  6140.94
    6650.92  57217.9  45990.4  6216.9
    6655.96  57422.8  46480.9  6302.39
    6661.1  57638.1  46979.9  6384.41
    6666.15  57809  47446.5  6464.96
    6671.31  57928.4  47886.5  6545.04
    6676.47  58115.4  48380  6625.65
    6681.64  58266.8  48863.1  6710.79
    6686.82  58426.8  49346.7  6794.45
    6692.01  58385.4  49673.7  6855.64
    6697.3  58250.4  49917.3  6906.37
    6702.51  55886  48227.4  6689.62
    6707.72  60528.1  52628  7316.4
    6713.04  60243.7  52773.1  7349.71
    6718.37  60102.8  53041.7  7403.55
    6723.7  60135.5  53459.9  7481.92
    6729.05  60182.7  53906.5  7559.82
    6734.4  60160.4  54300.7  7632.24
    6739.77  60289.7  54826.3  7731.2
    6745.14  60657.5  55561.5  7856.69
    6750.61  59782.8  55159.2  7820.7
    6756  57970.6  53904.4  7660.24
    6761.5  60593  56775.1  8091.31
    6766.91  61465.9  58020.3  8291.91
    6772.42  59994.3  57049.1  8173.04
    6777.94  61858.2  59270.3  8509.7
    6783.48  61857.7  59705  8594.89
    6789.02  61832.6  60112.3  8682.6
    6794.57  61873.2  60601.1  8775.85
    6800.23  61468.2  60652.4  8809.62
    6805.8  59023.8  58639.1  8539.93
    6811.48  64331.8  64406.4  9406.75
    6817.07  63529.5  64063.3  9381.12
    6822.77  63401.6  64413.6  9459.01
    6828.47  63456.3  64963.4  9561.43
    6834.19  63454.5  65450.8  9659.38
    6839.92  63626.2  66103.6  9784.85
    6845.66  63694.4  66674  9894.85
    6851.4  63794.2  67271.9  10009.4
    6857.16  63874.5  67854.2  10120.5
    6863.03  63954.3  68450.1  10229
    6868.81  64039.7  69044.5  10350.2
    6874.7  64207.5  69750.5  10476.8
    6880.5  64300.9  70374.9  10601
    6886.41  64364.9  70978.8  10717.7
    6892.33  64417.3  71565.3  10832.9
    6898.26  64461.3  72155.2  10948.7
    6904.2  64602.8  72853.7  11091
    6910.15  64653.8  73454.7  11204.8
    6916.11  64745.4  74107.2  11340.2
    6922.09  64795.5  74725.2  11475.1
    6928.18  64840.1  75367.7  11605.5
    6934.17  64940.2  76036.7  11746.4
    6940.28  65048.9  76736.2  11888.9
    6946.3  65092.1  77373.3  12020.9
    6952.43  65194.8  78084.8  12157.4
    6958.57  65323  78825.9  12303.5
    6964.62  65376.8  79484.4  12438
    6970.78  65417.1  80138.5  12575.2
    6976.96  65533.9  80879.1  12720.8
    6983.15  65586.2  81562.2  12858
    6989.35  65673.1  82276.8  12996.7
    6995.66  65667.5  82885  13133.9
    7001.88  65790.4  83638.6  13285.7
    7008.12  65787.9  84246.8  13424
    7014.47  65889.8  85002.4  13575.8
    7020.72  65949.3  85708.6  13716.1
    7027.1  65914.3  86275.3  13833
    7033.38  65987.9  86990.4  13990.4
    7039.77  66095  87790.1  14163.3
    7046.18  66113.6  88460.3  14303.8
    7052.6  66186.7  89190.1  14460.8
    7059.04  66243.3  89909.3  14618.3
    7065.48  66256.5  90542  14761.3
    7071.94  66249.2  91184.3  14900.9
    7078.41  66284.5  91893  15056
    7084.9  66342.2  92645.3  15219.7
    7091.39  66356.5  93319.1  15371.8
    7097.9  66286.3  93882.4  15497.5
    7104.53  66375.6  94698.2  15678.7
    7111.06  66374.5  95354.5  15824.5