File: data/Cr/k2cro4_15K_002.xdi
# XDI/1.0
# Column.1: energy eV
# Column.2: i0
# Column.3: itrans
# Column.4: irefer
# Beamline.name: SSRL 2-3
# Beamline.notes: vert slits = 0.6mm
# Detector.I0: N2 15cm
# Detector.I1: N2 30cm
# Detector.I2: N2 15cm
# Element.edge: K
# Element.symbol: Cr
# Mono.d_spacing: 3.13550
# Mono.name: Si(111)
# Mono.notes: unfocused, detuned 75%, clockwise at E=5990eV
# Sample.formula: K2CrO4
# Sample.name: K2CrO4
# Sample.prep: powder on tape (4 layers)
# Sample.reference: Cr foil
# Sample.temperature: 15K
# Scan.start_time: 1997-04-18 11:01:58
# ///
#    Note: mono d_spacing is nominal!
#     exafs to K16
#     396  E XMU XMUR I0
#-------------
#   energy   i0   itrans  irefer
    5759.99  168036  3288.7   427.3
    5769.98  167564  3360.7   439.3
    5780.01  166921  3426.7   449.3
    5790  166274  3496.7   461.3
    5799.97  165585  3561.7   472.3
    5810.03  164981  3635.7   484.3
    5820  164293  3704.7   497.3
    5830  163743  3777.7   509.3
    5839.97  162890  3845.7   522.3
    5849.98  162191  3919.7   533.3
    5860.02  161584  3994.7   547.3
    5870.02  160763  4062.7   559.3
    5879.99  160183  4138.7   572.3
    5890  159482  4213.7   585.3
    5899.97  158681  4284.7   600.3
    5909.98  158014  4364.7   612.3
    5920.02  157235  4435.7   626.3
    5930.03  156507  4515.7   640.3
    5939.99  155764  4586.7   655.3
    5950  155108  4665.7   670.3
    5959.97  154445  4741.7   684.3
    5969.97  153504  4811.7   696.3
    5970.49  153469  4812.7   697.3
    5971.01  153111  4806.7   696.3
    5971.53  152815  4798.7   694.3
    5971.97  152344  4789.7   694.3
    5972.49  151278  4762.7   689.3
    5973.01  150760  4748.7   687.3
    5973.53  151843  4782.7   693.299
    5973.98  152975  4828.7   698.3
    5974.5  153658  4852.7   703.3
    5975.02  153623  4857.7   706.3
    5975.46  153536  4856.7   705.3
    5975.98  153521  4861.7   706.3
    5976.51  153582  4867.7   707.3
    5977.03  153466  4867.7   706.3
    5977.47  153346  4866.7   706.3
    5977.99  153300  4872.7   709.3
    5978.52  153227  4874.7   708.3
    5979.04  153410  4884.7   709.3
    5979.48  153261  4886.7   709.3
    5980.01  153088  4881.7   709.3
    5980.53  153220  4891.7   710.3
    5980.97  153249  4893.7   712.3
    5981.49  153303  4899.7   712.3
    5982.02  153051  4895.7   709.3
    5982.46  153195  4905.7   712.3
    5982.99  153266  4909.7   712.3
    5983.51  153396  4916.7   713.3
    5984.03  153407  4920.7   714.3
    5984.48  153362  4925.7   715.3
    5985  153467  4929.7   716.3
    5985.52  153344  4927.7   716.3
    5985.97  152631  4907.7   713.299
    5986.49  150146  4832.7   702.3
    5987.02  144945  4664.7   676.3
    5987.46  137769  4433.7   643.3
    5987.99  134480  4330.7   627.3
    5988.51  140084  4512.7   653.3
    5989.03  144457  4652.7   670.3
    5989.48  147103  4732.7   678.3
    5990  148916  4781.7   679.3
    5990.53  149841  4801.7   669.3
    5990.98  150057  4798.7   651.3
    5991.5  150346  4778.7   631.3
    5992.02  150616  4745.7   613.3
    5992.47  150672  4689.7   595.3
    5992.99  150748  4564.7   570.3
    5993.52  150757  4332.7   534.3
    5993.97  150823  3984.7   486.3
    5994.49  150866  3290.7   399.3
    5995.02  150872  2577.7   311.3
    5995.47  150818  2508.7   300.3
    5995.99  150711  3134.7   372.3
    5996.51  150805  3869.7   455.3
    5996.96  150762  4244.7   499.3
    5997.49  150620  4468.7   525.3
    5998.01  150558  4577.7   537.3
    5998.54  150555  4630.7   539.3
    5998.99  150653  4647.7   535.3
    5999.51  150423  4630.7   525.3
    6000.04  150296  4595.7   510.3
    6000.49  150141  4542.7   496.3
    6001.01  149956  4459.7   476.3
    6001.46  149145  4359.7   459.3
    6001.99  147927  4252.7   438.3
    6002.51  147826  4202.7   427.3
    6002.96  148960  4220.7   424.3
    6003.49  150227  4266.7   424.3
    6004.02  150420  4297.7   421.3
    6004.47  150422  4313.7   418.3
    6004.99  150361  4319.7   414.3
    6005.52  150263  4304.7   409.3
    6005.97  150185  4268.7   403.3
    6006.5  150034  4201.7   392.3
    6007.02  149916  4117.7   382.3
    6007.47  149973  4037.7   372.3
    6008  150026  3903.7   356.3
    6008.53  149999  3705.7   335.3
    6008.98  149811  3494.7   314.3
    6009.5  149796  3242.7   290.3
    6010.03  149861  3020.7   267.3
    6010.94  149790  2766.46   244.064
    6011.84  149713  2637.73   232.358
    6012.82  149553  2604.51   233.181
    6013.8  149519  2610.81   239.534
    6014.78  149614  2649.62   248.415
    6015.76  149644  2680.94   254.826
    6016.81  149486  2668.78   252.765
    6017.8  149553  2628.14   248.234
    6018.93  149660  2526   237.233
    6019.99  149791  2475.38   229.76
    6021.12  149727  2478.27   227.817
    6022.18  149809  2466.68   228.402
    6023.39  149883  2407.6   222.518
    6024.52  150099  2359.03   220.162
    6025.73  150271  2360.98   220.335
    6026.87  150281  2368.44   221.038
    6028.16  150345  2373.42   220.27
    6029.37  150442  2357.9   217.031
    6030.58  150645  2337.91   214.321
    6031.87  150935  2341.42   212.141
    6033.16  150923  2351.45   212.49
    6034.53  150996  2362.99   214.367
    6035.82  151285  2363.05   214.774
    6037.19  151601  2340.62   211.711
    6038.56  151807  2303.7   208.176
    6040  152007  2264.3   203.171
    6041.37  152187  2252.41   200.695
    6042.82  152394  2273.03   202.748
    6044.26  152741  2323.17   206.331
    6045.71  153080  2392.82   214.442
    6047.24  153338  2489.98   224.083
    6048.76  153681  2581.66   233.252
    6050.29  153801  2636.85   238.952
    6051.82  154196  2684.56   244.181
    6053.42  154561  2741.78   253.938
    6054.95  155007  2783.51   261.225
    6056.56  155310  2816.76   266.041
    6058.24  155595  2853.52   272.386
    6059.85  155791  2902.79   277.26
    6061.53  155888  2958.58   283.664
    6063.22  156187  3021.88   290.597
    6064.91  156588  3077.7   296.059
    6066.68  157027  3128.02   297.05
    6068.36  157485  3170.86   299.57
    6070.13  157890  3203.22   298.621
    6071.9  158123  3206.09   296.199
    6073.75  158792  3203.47   293.307
    6075.52  159322  3199.37   291.944
    6077.37  159857  3195.78   296.111
    6079.22  160364  3191.7   299.807
    6081.15  160829  3181.14   303.031
    6083  161254  3180.09   306.786
    6084.93  161817  3191.55   314.069
    6086.87  162261  3209.53   316.881
    6088.8  162826  3237.02   318.223
    6090.81  163358  3275.03   318.094
    6092.83  163837  3322.54   316.494
    6094.84  164617  3368.58   313.423
    6096.86  165175  3401.12   309.882
    6098.88  165706  3423.18   306.87
    6100.98  166309  3435.76   306.387
    6103.07  166858  3445.84   307.433
    6105.18  167537  3457.44   312.008
    6107.28  168079  3446.55   318.112
    6109.46  168670  3436.18   324.746
    6111.64  169113  3434.32   331.909
    6113.83  169782  3452.98   338.601
    6116.01  170512  3477.14   344.822
    6118.28  171317  3492.83   348.573
    6120.47  171939  3497.02   348.853
    6122.74  172677  3500.73   348.662
    6125.01  173277  3506.95   348
    6127.36  174060  3532.69   351.868
    6129.64  174780  3572.94   358.264
    6131.99  175479  3620.7   365.19
    6134.35  176164  3673.98   373.645
    6136.79  176893  3746.77   381.629
    6139.15  177484  3821.07   388.143
    6141.59  178142  3885.89   393.185
    6144.04  178965  3939.22   398.757
    6146.48  179710  3988.07   403.858
    6148.93  180495  4032.43   404.488
    6151.46  181229  4080.3   406.648
    6153.99  181931  4128.69   410.336
    6156.53  182603  4168.58   414.554
    6159.06  183392  4211   417.302
    6161.6  184259  4254.92   417.578
    6164.22  185112  4301.36   418.383
    6166.84  185847  4341.31   421.718
    6169.47  186677  4388.78   427.582
    6172.1  187285  4443.76   437.975
    6174.81  188298  4517.26   449.897
    6177.52  189096  4585.27   462.349
    6180.23  189784  4653.79   474.329
    6182.95  190127  4702.83   483.839
    6185.67  191081  4754.37   492.878
    6188.47  192037  4801.44   498.447
    6191.27  192822  4848.01   503.544
    6194.08  193752  4900.1   511.17
    6196.89  194518  4945.7   518.327
    6199.7  195463  4988.82   522.012
    6202.6  197019  5054.45   531.227
    6205.5  197405  5088.6   534.97
    6208.4  198153  5132.25   542.243
    6211.3  199292  5182.43   551.044
    6214.21  200233  5227.11   559.376
    6217.2  201092  5273.31   565.236
    6220.2  202166  5333.02   571.625
    6223.19  202940  5387.25   574.544
    6226.19  203917  5442.99   578.992
    6229.2  204796  5495.24   580.97
    6232.28  205853  5558   584.477
    6235.38  206044  5595.28   581.512
    6238.47  208350  5684.08   590.076
    6241.56  204511  5601.39   579.171
    6244.75  207862  5721.21   589.794
    6247.85  209895  5812.54   599.946
    6251.04  211008  5876.39   610.628
    6254.23  212006  5941.75   625.839
    6257.43  213033  6010.63   642.579
    6260.71  213924  6083.02   655.848
    6263.91  214487  6144.92   667.646
    6267.2  215539  6223.33   677.974
    6270.49  216624  6299.27   686.831
    6273.79  217358  6368.71   695.217
    6277.17  218411  6447.66   709.132
    6280.48  219557  6525.13   719.577
    6283.86  220604  6597.11   728.55
    6287.26  221514  6665.61   737.053
    6290.65  222197  6740.63   745.086
    6294.06  223429  6832.15   756.646
    6297.54  224561  6925.19   768.737
    6300.95  225420  7008.75   782.358
    6304.45  226150  7093.81   793.506
    6307.95  227379  7193.39   806.185
    6311.54  228228  7281.48   816.392
    6315.05  229408  7376.09   824.128
    6318.56  230144  7449.21   832.394
    6322.16  231004  7525.84   838.188
    6325.77  232107  7612.99   849.513
    6329.38  233328  7711.65   858.366
    6333.07  234299  7808.82   869.749
    6336.69  235206  7899.51   878.661
    6340.4  236060  7986.71   889.102
    6344.11  236732  8054.43   900.072
    6347.83  238154  8154.66   914.572
    6351.55  239089  8244.4   930.6
    6355.27  239800  8325.66   945.158
    6359.09  240770  8416.43   956.244
    6362.82  241676  8500.71   974.861
    6366.65  242735  8595.5   988.006
    6370.47  243612  8678.82  1003.68
    6374.31  244627  8774.64  1017.88
    6378.23  245504  8868.98  1029.62
    6382.07  246614  8976.83  1043.88
    6386.01  247977  9097.19  1060.67
    6389.95  248780  9191.08  1075.99
    6393.89  249753  9296.46  1089.84
    6397.84  250868  9397.37  1102.22
    6401.88  251753  9485.79  1115.13
    6405.84  252671  9590.72  1131.57
    6409.89  253625  9690.17  1144.53
    6413.95  254340  9790.13  1158.03
    6418.01  255207  9894.61  1177.05
    6422.08  255852  9986.59  1191.61
    6426.15  256759  10100.1  1206.69
    6430.32  257655  10206.1  1222.3
    6434.4  258522  10328.6  1239.45
    6438.58  259340  10452.7  1251.12
    6442.76  259967  10559.2  1269.32
    6446.95  260869  10680.3  1288.05
    6451.23  261586  10793.9  1304.31
    6455.43  262630  10923  1324.09
    6459.72  263496  11050.6  1343.41
    6463.93  264478  11190.7  1364.26
    6468.24  265013  11302.4  1382.64
    6472.55  266134  11437.5  1404.54
    6476.95  266820  11564.2  1422.97
    6481.28  267526  11681.3  1440.93
    6485.61  268422  11820  1463.43
    6490.03  269294  11954.2  1484.45
    6494.46  270165  12091  1501
    6498.9  271040  12224.2  1520.08
    6503.34  271572  12339.9  1537.69
    6507.79  272660  12490.2  1559.83
    6512.34  272871  12602  1579.49
    6516.8  273895  12740.2  1604.69
    6521.35  274880  12898.1  1627.42
    6525.92  275336  13029.4  1648.67
    6530.49  276331  13179.2  1672.46
    6535.07  277009  13320.5  1694.77
    6539.65  277816  13464.4  1716.61
    6544.25  278083  13577.8  1736.99
    6548.94  278697  13709.6  1749.89
    6553.54  279285  13829  1769.32
    6558.24  279850  13975.9  1792.28
    6562.95  280089  14097.4  1809.77
    6567.67  281117  14252.3  1834.78
    6572.4  281696  14395.8  1856.33
    6577.22  282394  14540.7  1881.41
    6581.96  282837  14685.2  1903.01
    6586.79  283772  14843.2  1930.15
    6591.55  284046  14970.7  1950.81
    6596.4  284290  15102.7  1975.01
    6601.26  285335  15280.2  2002.73
    6606.12  285810  15424.3  2029.98
    6611.09  286176  15560.8  2053.76
    6615.97  286813  15719.9  2078.07
    6620.95  287446  15875.5  2101.91
    6625.85  287834  16021.6  2128.28
    6630.85  288386  16174.2  2154.18
    6635.85  288541  16312.3  2174.6
    6640.87  289210  16475  2204.56
    6645.89  289913  16645.1  2234.05
    6650.92  289909  16785.8  2259.06
    6655.96  290195  16939  2286.6
    6661.1  290862  17115.7  2316.68
    6666.15  291353  17280.9  2346.28
    6671.31  291292  17418.6  2374.41
    6676.47  292088  17602.8  2409.07
    6681.64  291760  17727.6  2432.26
    6686.82  291682  17861.9  2454.98
    6692.01  291477  17992.6  2472.23
    6697.3  289261  17996.9  2482.01
    6702.51  277460  17427.7  2412.31
    6707.72  311978  19743  2735.15
    6713.04  300785  19168.9  2666.51
    6718.37  298567  19176.2  2671.41
    6723.7  298004  19290.1  2693.83
    6729.05  297221  19404.4  2719.78
    6734.4  296151  19491.3  2728.26
    6739.77  300766  19957.7  2796.28
    6745.14  297564  19906.6  2796.82
    6750.61  293091  19739.1  2785.89
    6756  292204  19891  2818.49
    6761.5  299628  20556.5  2921.61
    6766.91  301381  20815.4  2964.27
    6772.42  294341  20496.9  2929.46
    6777.94  302573  21230.9  3040.17
    6783.48  301565  21340.4  3065.41
    6789.02  300731  21443.4  3088.19
    6794.57  299732  21546  3114.49
    6800.23  296859  21508  3119.32
    6805.8  285428  20876.6  3035.69
    6811.48  313320  23052.6  3361.58
    6817.07  307504  22816.2  3339
    6822.77  305882  22893.3  3354.95
    6828.47  305038  23011  3377.43
    6834.19  304804  23191.1  3414.43
    6839.92  304954  23384.7  3454.97
    6845.66  304789  23567.9  3495.03
    6851.4  304247  23716.5  3520.63
    6857.16  304511  23929.7  3564.75
    6863.03  304234  24105.4  3602.41
    6868.81  304083  24291.6  3643.59
    6874.7  304325  24516.4  3682.3
    6880.5  304341  24711.6  3721.54
    6886.41  304449  24935.4  3761.31
    6892.33  304195  25118.6  3796.62
    6898.26  304158  25326.4  3843.44
    6904.2  304206  25525.7  3883.8
    6910.15  304198  25752.5  3933.68
    6916.11  304236  25963.8  3975.1
    6922.09  303710  26138.7  4002.05
    6928.18  303258  26320  4042.52
    6934.17  303685  26579.9  4093.53
    6940.28  303634  26799.2  4144.06
    6946.3  303825  27037.1  4195.12
    6952.43  303732  27247.5  4231.72
    6958.57  303434  27436.5  4271.84
    6964.62  303786  27687.9  4327.49
    6970.78  303860  27932.8  4374.67
    6976.96  303757  28157.3  4417.37
    6983.15  303749  28381.3  4461.61
    6989.35  303469  28588.7  4503.38
    6995.66  303052  28791.7  4564.67
    7001.88  303253  29027.2  4618.5
    7008.12  303162  29243.3  4658.85
    7014.47  303266  29494.8  4707.74
    7020.72  303018  29707.9  4759.15
    7027.1  302702  29914.4  4808.1
    7033.38  302856  30174.5  4862.57
    7039.77  302739  30403.1  4904.56
    7046.18  302344  30588.2  4948.1
    7052.6  302587  30848.8  5003.15
    7059.04  302337  31070.9  5045.74
    7065.48  302938  31368.6  5110.86
    7071.94  302469  31567.8  5159.51
    7078.41  302030  31771.4  5205.68
    7084.9  301903  32006.6  5250.39
    7091.39  301619  32234.3  5303.62
    7097.9  301441  32471.5  5362.39
    7104.53  301213  32705.3  5419.67
    7111.06  300792  32918.5  5469.5