File: data/Cr/k2cr2o7_rt_001.xdi
# XDI/1.0
# Column.1: energy eV
# Column.2: i0
# Column.3: itrans
# Column.4: irefer
# Beamline.name: SSRL 2-3
# Beamline.notes: vert slits = 0.6mm
# Detector.I0: N2 15cm
# Detector.I1: N2 30cm
# Detector.I2: N2 15cm
# Element.edge: K
# Element.symbol: Cr
# Mono.d_spacing: 3.13550
# Mono.name: Si(111)
# Mono.notes: unfocused, detuned 75%, clockwise at E=5990eV
# Sample.formula: K2Cr2O7
# Sample.name: K2Cr2O7
# Sample.prep: powder on tape (6 layers)
# Sample.reference: Cr foil
# Sample.temperature: room temp
# Scan.start_time: 1997-04-17 18:36:45
# ///
#    Note: mono d_spacing is nominal!
#     exafs to K16
#     396  E XMU XMUR I0
#-------------
#   energy   i0   itrans  irefer
    5759.99  25610.9  8938.5  1136.7
    5769.98  25572.9  9113.5  1165.7
    5780.01  25547.9  9300.5  1197.7
    5790  25498.9  9487.5  1228.7
    5799.97  25445.9  9666.5  1260.7
    5810.03  25419.9  9859.5  1292.7
    5820  25364.9  10046.5  1326.7
    5830  25336.9  10243.5  1361.7
    5839.97  25270.9  10430.5  1393.7
    5849.98  25224.9  10618.5  1428.7
    5860.02  25176.9  10819.5  1463.7
    5870.02  25112.9  11010.5  1499.7
    5879.99  25073.9  11213.5  1536.7
    5890  25019.9  11415.5  1574.7
    5899.97  24956.9  11611.5  1611.7
    5909.98  24908.9  11820.5  1649.7
    5920.02  24853.9  12022.5  1685.7
    5930.03  24789.9  12230.5  1724.7
    5939.99  24736.9  12432.5  1763.7
    5950  24679.9  12640.5  1803.7
    5959.97  24623.9  12843.5  1841.7
    5969.97  24548.9  13032.5  1878.7
    5970.49  24539.9  13038.5  1879.7
    5971.01  24511.9  13028.5  1876.7
    5971.53  24437.9  12999.5  1872.7
    5971.97  24338.9  12958.5  1869.7
    5972.49  24190.9  12889.5  1859.7
    5973.01  24181.9  12894.5  1861.7
    5973.53  24308.9  12971.5  1872.7
    5973.98  24463.9  13066.5  1886.7
    5974.5  24557.9  13125.5  1894.7
    5975.02  24568.9  13149.5  1896.7
    5975.46  24568.9  13154.5  1900.7
    5975.98  24567.9  13163.5  1901.7
    5976.51  24558.9  13167.5  1902.7
    5977.03  24564.9  13181.5  1904.7
    5977.47  24555.9  13186.5  1905.7
    5977.99  24554.9  13195.5  1907.7
    5978.52  24567.9  13212.5  1911.7
    5979.04  24564.9  13221.5  1911.7
    5979.48  24554.9  13219.5  1912.7
    5980.01  24553.9  13235.5  1915.7
    5980.53  24573.9  13253.5  1917.7
    5980.97  24573.9  13259.5  1918.7
    5981.49  24569.9  13270.5  1919.7
    5982.02  24559.9  13272.5  1919.7
    5982.46  24585.9  13299.5  1922.7
    5982.99  24581.9  13299.5  1925.7
    5983.51  24587.9  13311.5  1926.7
    5984.03  24581.9  13307.5  1924.7
    5984.48  24599.9  13327.5  1925.7
    5985  24592.9  13332.5  1924.7
    5985.52  24527.9  13301.5  1922.7
    5985.97  24350.9  13207.5  1907.7
    5986.49  23931.9  12984.5  1878.7
    5987.02  22876.9  12413.5  1791.7
    5987.46  21558.9  11696.5  1688.7
    5987.99  21537.9  11687.5  1685.7
    5988.51  22729.9  12327.5  1774.7
    5989.03  23426.9  12694.5  1819.7
    5989.48  23737.9  12848.5  1834.7
    5990  23985.9  12956.5  1829.7
    5990.53  24125.9  12994.5  1794.7
    5990.98  24187.9  12973.5  1745.7
    5991.5  24212.9  12888.5  1686.7
    5992.02  24241.9  12722.5  1629.7
    5992.47  24262.9  12460.5  1571.7
    5992.99  24284.9  11919.5  1476.7
    5993.52  24288.9  11087.5  1357.7
    5993.97  24289.9  10149.5  1228.7
    5994.49  24299.9  8603.5  1030.7
    5995.02  24312.9  7013.5   832.7
    5995.47  24311.9  6789.5   802.699
    5995.99  24276.9  8207.5   963.7
    5996.51  24299.9  10048.5  1173.7
    5996.96  24296.9  11046.5  1291.7
    5997.49  24299.9  11712.5  1368.7
    5998.01  24283.9  12047.5  1405.7
    5998.54  24282.9  12230.5  1415.7
    5998.99  24291.9  12306.5  1409.7
    5999.51  24271.9  12301.5  1383.7
    6000.04  24247.9  12219.5  1344.7
    6000.49  24233.9  12103.5  1309.7
    6001.01  24165.9  11895.5  1258.7
    6001.46  24045.9  11681.5  1214.7
    6001.99  23887.9  11407.5  1164.7
    6002.51  23895.9  11214.5  1127.7
    6002.96  24019.9  11124.5  1102.7
    6003.49  24161.9  11035.5  1082.7
    6004.02  24245.9  10963.5  1061.7
    6004.47  24239.9  10875.5  1043.7
    6004.99  24254.9  10775.5  1023.7
    6005.52  24247.9  10606.5   999.7
    6005.97  24234.9  10405.5   972.7
    6006.5  24223.9  10122.5   936.7
    6007.02  24229.9  9825.5   900.7
    6007.47  24227.9  9583.5   872.7
    6008  24215.9  9267.5   835.7
    6008.53  24204.9  8894.5   792.7
    6008.98  24228.9  8564.5   758.7
    6009.5  24221.9  8157.5   715.7
    6010.03  24212.9  7759.5   675.7
    6010.94  24201.7  7173.25   615.465
    6011.84  24190  6768.52   580.758
    6012.82  24209.8  6520.3   568.581
    6013.8  24199.1  6380.58   570.932
    6014.78  24196  6270.38   574.812
    6015.76  24195.4  6177.69   573.222
    6016.81  24218.3  6116.51   569.16
    6017.8  24237.7  6076.83   562.627
    6018.93  24259.7  6059.67   555.624
    6019.99  24251.2  6067.02   548.148
    6021.12  24272.2  6090.88   547.203
    6022.18  24313.8  6092.25   545.786
    6023.39  24325.8  6039.13   544.897
    6024.52  24351.4  5967.52   541.539
    6025.73  24368.6  5889.42   535.708
    6026.87  24417.2  5838.84   531.408
    6028.16  24462.4  5781.76   522.635
    6029.37  24496.1  5736.19   513.392
    6030.58  24514.3  5694.14   506.678
    6031.87  24562.1  5662.59   500.493
    6033.16  24598.4  5645.55   498.837
    6034.53  24640.2  5647.03   497.709
    6035.82  24668.5  5652.01   499.111
    6037.19  24696.4  5665.51   498.042
    6038.56  24738.8  5691.51   500.501
    6040  24792.7  5733.03   503.49
    6041.37  24837.1  5792.05   504.008
    6042.82  24888.1  5878.59   513.054
    6044.26  24930.6  5982.64   523.63
    6045.71  24989.6  6092.2   536.734
    6047.24  25048.1  6229.26   550.368
    6048.76  25101.2  6367.84   564.53
    6050.29  25163.8  6466.93   578.221
    6051.82  25218.9  6565.53   591.442
    6053.42  25294.5  6721.64   612.191
    6054.95  25358.7  6879.26   635.469
    6056.56  25436.4  7026.39   654.277
    6058.24  25485.6  7155.04   672.613
    6059.85  25519.4  7251.18   685.478
    6061.53  25567.6  7336.85   697.872
    6063.22  25607.4  7402.02   706.795
    6064.91  25681.8  7474.7   713.248
    6066.68  25767.6  7548.9   713.229
    6068.36  25842  7612.6   712.738
    6070.13  25917.9  7669.82   709.777
    6071.9  26002.3  7729.54   705.345
    6073.75  26096.3  7786.78   705.442
    6075.52  26178.8  7841.52   713.068
    6077.37  26289.8  7898.78   726.222
    6079.22  26384.3  7942.54   739.906
    6081.15  26469.4  7977.82   755.119
    6083  26542  8004.61   768.861
    6084.93  26677.1  8047.91   782.131
    6086.87  26786.7  8079.72   790.931
    6088.8  26866.9  8109.03   790.26
    6090.81  26983.6  8146.86   783.117
    6092.83  27058.8  8180.2   771.503
    6094.84  27174.5  8232.05   757.419
    6096.86  27282.8  8276.41   744.864
    6098.88  27392.6  8325.28   737.837
    6100.98  27512.9  8377.67   732.339
    6103.07  27638.7  8421.55   737.371
    6105.18  27751.1  8463.96   750.93
    6107.28  27858  8504.87   771.02
    6109.46  27980.4  8550.3   793.638
    6111.64  28090.4  8595.23   814.786
    6113.83  28189.8  8636.68   834.461
    6116.01  28346.8  8691.62   848.666
    6118.28  28482.4  8749.09   858.4
    6120.47  28606.4  8802.07   862.663
    6122.74  28739  8860.55   865.456
    6125.01  28893.1  8929.55   871.777
    6127.36  29018.7  8997.06   880.627
    6129.64  29131.9  9070.08   893.007
    6131.99  29258.6  9151.6   909.914
    6134.35  29398.8  9247.64   923.35
    6136.79  29542.5  9351.19   935.316
    6139.15  29694.8  9464.25   945.811
    6141.59  29834.6  9577.82   958.834
    6144.04  29996.9  9709.89   969.387
    6146.48  30148.7  9842.48   978.47
    6148.93  30301.1  9971.58   986.08
    6151.46  30445  10110.2   993.22
    6153.99  30616.4  10251.3  1004.89
    6156.53  30742.3  10381.9  1016.08
    6159.06  30910.8  10523.1  1023.81
    6161.6  31035.8  10644.7  1027.07
    6164.22  31189.3  10786.9  1027.85
    6166.84  31365.3  10921.6  1034.17
    6169.47  31514.9  11056.8  1050.01
    6172.1  31671  11182.5  1074.38
    6174.81  31840.6  11318.7  1102.28
    6177.52  32005.8  11448.4  1130.71
    6180.23  32143.5  11572.6  1157.67
    6182.95  32323.7  11711.3  1179.15
    6185.67  32491.4  11845.6  1202.17
    6188.47  32669.6  11979.3  1220.72
    6191.27  32837.4  12107.6  1232.79
    6194.08  32997.7  12240.4  1252.39
    6196.89  33198.5  12378.7  1271.52
    6199.7  33342.9  12503.5  1288.19
    6202.6  33518.8  12639.8  1306.38
    6205.5  33708.2  12783.6  1328.09
    6208.4  33868.1  12917.9  1347.34
    6211.3  34075.6  13068.8  1371.12
    6214.21  34245.6  13206.1  1395.42
    6217.2  34427.1  13348  1414.26
    6220.2  34638.1  13504.4  1429.62
    6223.19  34819.7  13645.2  1437.52
    6226.19  35011.8  13791.6  1445.94
    6229.2  35227.4  13947.5  1452.89
    6232.28  35401.5  14087  1457.37
    6235.38  35501.2  14200.9  1460.38
    6238.47  35873.4  14419.3  1474.91
    6241.56  35135.1  14195.3  1444.98
    6244.75  35976.4  14610.7  1484.58
    6247.85  36268.1  14803.7  1510.7
    6251.04  36520.4  14985.2  1539.35
    6254.23  36728.2  15154.1  1576.54
    6257.43  36933.6  15326.6  1619.25
    6260.71  37116.5  15494.6  1655.49
    6263.91  37336.9  15676.2  1687.26
    6267.2  37521.8  15852.2  1709.56
    6270.49  37729.2  16047.7  1733.38
    6273.79  37920.2  16224.8  1755.74
    6277.17  38159.7  16447.3  1786.62
    6280.48  38366.8  16648.4  1815.04
    6283.86  38571.3  16850  1838.98
    6287.26  38751.4  17048.1  1862.45
    6290.65  39000  17274.7  1887.45
    6294.06  39211.1  17492.8  1915.98
    6297.54  39431.8  17718.4  1947.04
    6300.95  39619  17928.5  1979.63
    6304.45  39800.7  18136.2  2010.75
    6307.95  40047.9  18373.3  2041.39
    6311.54  40256.7  18600  2069.57
    6315.05  40481  18831.2  2096.27
    6318.56  40684.8  19051.9  2117.5
    6322.16  40890.1  19275.1  2136.27
    6325.77  41141  19526.8  2156.56
    6329.38  41345.4  19754  2183.38
    6333.07  41568.3  20001.7  2209.72
    6336.69  41792.8  20244.9  2238.6
    6340.4  42033.7  20502.7  2270.01
    6344.11  42243.2  20741  2303.94
    6347.83  42467.3  21000.7  2344.41
    6351.55  42690.8  21255  2383.4
    6355.27  42916.9  21509.8  2421.92
    6359.09  43164.5  21779.1  2467.97
    6362.82  43404.6  22049.9  2509.55
    6366.65  43605.3  22293.2  2550.66
    6370.47  43813.4  22549.1  2595.3
    6374.31  44042.1  22823.4  2634.47
    6378.23  44266.4  23083.2  2672.16
    6382.07  44441.1  23332.6  2709.39
    6386.01  44671.4  23608.5  2746.14
    6389.95  44830.2  23837.9  2776.43
    6393.89  45079.5  24134.8  2820.24
    6397.84  45325.4  24427.2  2859.58
    6401.88  45541.8  24701.1  2896.45
    6405.84  45766.7  24982.5  2933.85
    6409.89  45976.1  25253.4  2974.78
    6413.95  46208.1  25553.9  3016.23
    6418.01  46418.6  25830.8  3059.22
    6422.08  46650.6  26145.3  3104.73
    6426.15  46841.1  26426.3  3147.78
    6430.32  47109.2  26754.8  3190.35
    6434.4  47358.8  27080.8  3234.45
    6438.58  47562.9  27397.3  3277.08
    6442.76  47776.6  27708.3  3318.24
    6446.95  48015.7  28042.8  3369.93
    6451.23  48223.4  28366.9  3419.15
    6455.43  48425.7  28693.4  3473.9
    6459.72  48664.4  29043.5  3530.17
    6463.93  48893.7  29376  3581.98
    6468.24  49135.5  29746.1  3637.31
    6472.55  49336.8  30085.7  3686.17
    6476.95  49590.7  30466.8  3743.56
    6481.28  49772  30801.4  3795.48
    6485.61  50001.9  31163.6  3851.93
    6490.03  50243.4  31554.2  3912.91
    6494.46  50448.3  31919.3  3964.41
    6498.9  50668.8  32299  4014.45
    6503.34  50874.8  32676.2  4067.02
    6507.79  51058.4  33038.8  4123.11
    6512.34  51261.4  33429  4186.73
    6516.8  51501  33820.7  4253.89
    6521.35  51720.1  34220.9  4316.57
    6525.92  51948.8  34626.6  4381.78
    6530.49  52211.9  35067.9  4449.51
    6535.07  52372.6  35432.6  4506.78
    6539.65  52579.8  35830.8  4567.58
    6544.25  52763.6  36222.6  4621.91
    6548.94  52949.8  36617.9  4686.76
    6553.54  53108.6  36999.7  4741.14
    6558.24  53324.9  37420.9  4802.06
    6562.95  53523.8  37836.7  4868.5
    6567.67  53742.2  38248.1  4936.47
    6572.4  53965.1  38685.9  5005.97
    6577.22  54195.5  39132.2  5086
    6581.96  54415.4  39573.1  5153.55
    6586.79  54609.9  40007.4  5225.64
    6591.55  54812.9  40438.3  5299.26
    6596.4  54971.4  40838.6  5371.4
    6601.26  55208.5  41307.5  5447.07
    6606.12  55399.1  41739.9  5520.28
    6611.09  55566.2  42167.8  5586.01
    6615.97  55811.8  42643.2  5668.27
    6620.95  56039  43140.2  5748.06
    6625.85  56197.6  43560.6  5811.37
    6630.85  56404.8  44028.6  5891.22
    6635.85  56617.6  44512  5973.6
    6640.87  56821.8  45004  6055.51
    6645.89  57008.6  45469.5  6128.94
    6650.92  57174.9  45930.4  6209.9
    6655.96  57361.8  46400.9  6286.39
    6661.1  57552.1  46883.9  6372.41
    6666.15  57726  47358.5  6452.96
    6671.31  57870.4  47809.5  6530.04
    6676.47  58072.4  48335  6617.65
    6681.64  58223.8  48808.1  6700.79
    6686.82  58365.8  49279.7  6781.45
    6692.01  58400.4  49656.7  6854.65
    6697.3  58244.4  49898.3  6903.37
    6702.51  55774  48118.4  6668.62
    6707.72  60530.1  52600  7306.4
    6713.04  60219.7  52734.1  7347.71
    6718.37  60074.8  52988.7  7403.56
    6723.7  60113.5  53422.9  7482.92
    6729.05  60161.7  53889.5  7564.82
    6734.4  60097.4  54229.7  7632.25
    6739.77  60370.7  54863.3  7746.2
    6745.14  60600.5  55486.5  7856.69
    6750.61  59745.8  55091.2  7824.7
    6756  58418.6  54289.4  7731.24
    6761.5  60520  56694.1  8091.32
    6766.91  61503.9  58039.3  8304.91
    6772.42  60046.3  57065.1  8188.04
    6777.94  61906.2  59294.3  8531.7
    6783.48  61932.7  59749  8618.89
    6789.02  61944.6  60208.3  8707.6
    6794.57  61880.2  60595.1  8789.85
    6800.23  61550.2  60721.4  8836.62
    6805.8  59123.8  58719.1  8566.92
    6811.48  64346.8  64414.4  9423.76
    6817.07  63572.5  64096.3  9397.12
    6822.77  63485.6  64487.6  9472.01
    6828.47  63532.3  65016.4  9576.43
    6834.19  63592.5  65558.8  9678.37
    6839.92  63703.2  66154.6  9786.85
    6845.66  63755.4  66726  9892.85
    6851.4  63918.2  67379.9  10017.4
    6857.16  64025.5  67986.2  10131.5
    6863.03  64147.3  68631.1  10254
    6868.81  64248.7  69246.5  10383.2
    6874.7  64330.5  69840.5  10497.8
    6880.5  64440.9  70480.9  10618
    6886.41  64529.9  71113.8  10748.7
    6892.33  64658.3  71780.3  10872.9
    6898.26  64728.3  72403.2  10995.7
    6904.2  64829.8  73039.7  11120
    6910.15  64916.8  73699.7  11249.8
    6916.11  65005.4  74343.2  11377.2
    6922.09  65022.5  74927.2  11497.1
    6928.18  65077.1  75580.7  11634.5
    6934.17  65206.2  76290.7  11772.4
    6940.28  65325.9  77011.2  11917.9
    6946.3  65372.1  77645.3  12049.9
    6952.43  65425.8  78293.8  12183.4
    6958.57  65538  79039.9  12337.5
    6964.62  65622.8  79736.4  12475.1
    6970.78  65723.1  80448.5  12620.2
    6976.96  65777.9  81111.1  12761.8
    6983.15  65853.2  81827.2  12906
    6989.35  65860.1  82447.8  13045.7
    6995.66  65955.5  83181  13189.9
    7001.88  66041.4  83910.6  13335.7
    7008.12  66099.9  84604.7  13489
    7014.47  66173.8  85329.4  13638.8
    7020.72  66279.3  86073.6  13794.1
    7027.1  66292.3  86715.2  13931
    7033.38  66347.9  87412.4  14080.4
    7039.77  66387  88107.1  14223.3
    7046.18  66462.6  88848.3  14380.8
    7052.6  66496.7  89542.1  14520.8
    7059.04  66538.3  90236.3  14678.3
    7065.48  66541.5  90896  14818.4
    7071.94  66545.2  91544.3  14962.9
    7078.41  66701.5  92406  15148
    7084.9  66683.2  93060.3  15294.7
    7091.39  66702.5  93737.1  15444.8
    7097.9  66777.3  94515.4  15614.5
    7104.53  66734.6  95157.2  15760.8
    7111.06  66747.5  95839.5  15911.5