File: data/Cr/k2cr2o7_rt_004.xdi
# XDI/1.0
# Column.1: energy eV
# Column.2: i0
# Column.3: itrans
# Column.4: irefer
# Beamline.name: SSRL 2-3
# Beamline.notes: vert slits = 0.6mm
# Detector.I0: N2 15cm
# Detector.I1: N2 30cm
# Detector.I2: N2 15cm
# Element.edge: K
# Element.symbol: Cr
# Mono.d_spacing: 3.13550
# Mono.name: Si(111)
# Mono.notes: unfocused, detuned 75%, clockwise at E=5990eV
# Sample.formula: K2Cr2O7
# Sample.name: K2Cr2O7
# Sample.prep: powder on tape (6 layers)
# Sample.reference: Cr foil
# Sample.temperature: room temp
# Scan.start_time: 1997-04-17 18:36:45
# ///
#    Note: mono d_spacing is nominal!
#     exafs to K16
#     396  E XMU XMUR I0
#-------------
#   energy   i0   itrans  irefer
    5759.99  26044.9  9096.5  1158.7
    5769.98  25995.9  9277.5  1189.7
    5780.01  25985.9  9468.5  1221.7
    5790  25920.9  9651.5  1252.7
    5799.97  25872.9  9837.5  1284.7
    5810.03  25837.9  10034.5  1320.7
    5820  25792.9  10223.5  1353.7
    5830  25739.9  10415.5  1386.7
    5839.97  25678.9  10606.5  1420.7
    5849.98  25634.9  10807.5  1457.7
    5860.02  25584.9  11010.5  1493.7
    5870.02  25492.9  11194.5  1526.7
    5879.99  25468.9  11404.5  1565.7
    5890  25398.9  11604.5  1600.7
    5899.97  25357.9  11814.5  1639.7
    5909.98  25297.9  12023.5  1679.7
    5920.02  25238.9  12232.5  1719.7
    5930.03  25197.9  12452.5  1760.7
    5939.99  25135.9  12652.5  1798.7
    5950  25091.9  12860.5  1838.7
    5959.97  25015.9  13065.5  1874.7
    5969.97  24938.9  13254.5  1912.7
    5970.49  24911.9  13250.5  1913.7
    5971.01  24906.9  13256.5  1916.7
    5971.53  24879.9  13256.5  1916.7
    5971.97  24775.9  13208.5  1909.7
    5972.49  24601.9  13132.5  1899.7
    5973.01  24551.9  13116.5  1896.7
    5973.53  24702.9  13206.5  1909.7
    5973.98  24840.9  13292.5  1921.7
    5974.5  24921.9  13346.5  1931.7
    5975.02  24969.9  13379.5  1935.7
    5975.46  24968.9  13390.5  1935.7
    5975.98  24966.9  13397.5  1938.7
    5976.51  24937.9  13393.5  1939.7
    5977.03  24949.9  13409.5  1940.7
    5977.47  24956.9  13423.5  1943.7
    5977.99  24987.9  13452.5  1948.7
    5978.52  24960.9  13446.5  1947.7
    5979.04  24970.9  13460.5  1949.7
    5979.48  24966.9  13463.5  1951.7
    5980.01  24958.9  13475.5  1950.7
    5980.53  24953.9  13480.5  1952.7
    5980.97  24958.9  13490.5  1954.7
    5981.49  24963.9  13500.5  1956.7
    5982.02  24987.9  13520.5  1959.7
    5982.46  24952.9  13511.5  1959.7
    5982.99  24953.9  13523.5  1960.7
    5983.51  24971.9  13543.5  1965.7
    5984.03  25000.9  13561.5  1964.7
    5984.48  24995.9  13565.5  1966.7
    5985  25001.9  13578.5  1969.7
    5985.52  24968.9  13566.5  1965.7
    5985.97  24831.9  13496.5  1956.7
    5986.49  24430.9  13283.5  1923.7
    5987.02  23542.9  12803.5  1853.7
    5987.46  22224.9  12081.5  1748.7
    5987.99  21698.9  11794.5  1703.7
    5988.51  22840.9  12411.5  1787.7
    5989.03  23675.9  12853.5  1846.7
    5989.48  24066.9  13048.5  1868.7
    5990  24365.9  13189.5  1869.7
    5990.53  24502.9  13228.5  1840.7
    5990.98  24568.9  13212.5  1792.7
    5991.5  24632.9  13162.5  1735.7
    5992.02  24646.9  13015.5  1676.7
    5992.47  24671.9  12794.5  1620.7
    5992.99  24668.9  12296.5  1535.7
    5993.52  24689.9  11532.5  1418.7
    5993.97  24706.9  10689.5  1299.7
    5994.49  24707.9  9239.5  1111.7
    5995.02  24708.9  7498.5   894.699
    5995.47  24716.9  6830.5   809.701
    5995.99  24714.9  7854.5   923.699
    5996.51  24689.9  9785.5  1147.7
    5996.96  24695.9  10976.5  1286.7
    5997.49  24710.9  11775.5  1379.7
    5998.01  24718.9  12197.5  1426.7
    5998.54  24692.9  12407.5  1442.7
    5998.99  24678.9  12503.5  1438.7
    5999.51  24687.9  12532.5  1418.7
    6000.04  24679.9  12477.5  1383.7
    6000.49  24650.9  12370.5  1346.7
    6001.01  24585.9  12167.5  1298.7
    6001.46  24494.9  11955.5  1254.7
    6001.99  24358.9  11692.5  1201.7
    6002.51  24298.9  11455.5  1159.7
    6002.96  24377.9  11336.5  1133.7
    6003.49  24551.9  11259.5  1111.7
    6004.02  24648.9  11173.5  1089.7
    6004.47  24652.9  11097.5  1072.7
    6004.99  24658.9  10994.5  1051.7
    6005.52  24659.9  10846.5  1026.7
    6005.97  24667.9  10669.5  1002.7
    6006.5  24633.9  10388.5   968.7
    6007.02  24626.9  10078.5   929.7
    6007.47  24650.9  9836.5   898.7
    6008  24649.9  9536.5   863.7
    6008.53  24632.9  9169.5   822.7
    6008.98  24621.9  8820.5   785.7
    6009.5  24654.9  8422.5   742.7
    6010.03  24641.9  8010.5   699.7
    6010.94  24624.7  7381.25   636.465
    6011.84  24613  6941.52   595.758
    6012.82  24604.8  6661.3   583.581
    6013.8  24625.1  6518.58   583.932
    6014.78  24615  6404.38   586.812
    6015.76  24618.4  6304.69   588.222
    6016.81  24618.3  6235.5   584.16
    6017.8  24649.7  6194.84   578.627
    6018.93  24650.7  6167.67   569.624
    6019.99  24654.2  6177.02   563.148
    6021.12  24660.2  6195.88   559.203
    6022.18  24720.8  6206.25   561.786
    6023.39  24744.8  6160.13   558.897
    6024.52  24767.4  6085.52   556.539
    6025.73  24780.6  6004.43   552.708
    6026.87  24822.2  5947.83   545.408
    6028.16  24828.4  5884.76   535.635
    6029.37  24868.1  5836.19   525.392
    6030.58  24880.3  5790.13   517.678
    6031.87  24920.1  5757.59   511.493
    6033.16  24970.4  5742.55   507.837
    6034.53  25021.2  5745.03   507.709
    6035.82  25045.5  5749.01   508.111
    6037.19  25058.4  5757.5   506.042
    6038.56  25118.8  5784.51   506.501
    6040  25179.7  5828.03   508.49
    6041.37  25212.1  5886.06   513.008
    6042.82  25235.1  5964.59   521.054
    6044.26  25303.6  6071.64   528.63
    6045.71  25349.6  6177.2   542.734
    6047.24  25432.1  6319.26   557.368
    6048.76  25462.2  6455.85   570.53
    6050.29  25523.8  6559.93   583.221
    6051.82  25567.9  6655.53   597.442
    6053.42  25667.5  6819.64   620.191
    6054.95  25754.7  6982.26   642.469
    6056.56  25797.4  7125.39   661.277
    6058.24  25871.6  7266.03   681.613
    6059.85  25917.4  7373.19   695.478
    6061.53  25965.6  7455.84   705.872
    6063.22  25997.4  7522.02   714.795
    6064.91  26084.8  7602.7   720.247
    6066.68  26127.6  7660.9   721.229
    6068.36  26228  7733.6   720.738
    6070.13  26278.9  7783.81   716.777
    6071.9  26405.3  7857.54   714.345
    6073.75  26518.3  7920.78   715.442
    6075.52  26618.8  7982.52   723.068
    6077.37  26680.8  8020.78   733.222
    6079.22  26772.3  8068.55   747.906
    6081.15  26852.4  8101.82   762.12
    6083  26994  8148.61   777.861
    6084.93  27092.1  8177.9   793.131
    6086.87  27197.7  8212.72   800.931
    6088.8  27301.9  8249.03   803.26
    6090.81  27361.6  8271.87   795.117
    6092.83  27469.8  8312.2   781.503
    6094.84  27609.5  8371.05   770.419
    6096.86  27675.8  8402.41   758.863
    6098.88  27811.6  8459.28   749.837
    6100.98  27880.9  8492.66   744.338
    6103.07  28005.7  8548.56   749.371
    6105.18  28086.1  8575.96   759.931
    6107.28  28203  8620.87   780.02
    6109.46  28316.4  8664.29   802.638
    6111.64  28440.4  8711.23   825.785
    6113.83  28576.8  8761.67   846.461
    6116.01  28717.8  8812.63   859.667
    6118.28  28852.4  8873.09   869.401
    6120.47  28957.4  8919.07   872.664
    6122.74  29076  8975.55   878.456
    6125.01  29219.1  9042.55   882.777
    6127.36  29343.7  9112.05   890.627
    6129.64  29471.9  9182.07   902.006
    6131.99  29606.6  9268.6   919.914
    6134.35  29772.8  9372.64   934.35
    6136.79  29924.5  9484.19   949.317
    6139.15  30057.8  9590.24   957.811
    6141.59  30233.6  9719.82   969.834
    6144.04  30362.9  9839.89   979.388
    6146.48  30480.7  9958.49   989.47
    6148.93  30633.1  10088.6   996.08
    6151.46  30783  10227.2  1005.22
    6153.99  30911.4  10355.3  1013.89
    6156.53  31093.3  10506  1029.08
    6159.06  31256.8  10646.1  1035.81
    6161.6  31390.8  10775.7  1039.07
    6164.22  31554.3  10915.9  1040.85
    6166.84  31734.3  11059.6  1050.17
    6169.47  31862.9  11183.8  1064.01
    6172.1  32027  11318.5  1088.38
    6174.81  32207.6  11462.7  1120.28
    6177.52  32375.8  11592.4  1149.71
    6180.23  32544.5  11729.6  1177.67
    6182.95  32692.7  11855.3  1202.15
    6185.67  32878.4  11997.6  1223.17
    6188.47  33060.6  12135.3  1242.71
    6191.27  33250.4  12278.6  1260.79
    6194.08  33389.7  12395.4  1275.39
    6196.89  33619.5  12553.7  1293.52
    6199.7  33807.9  12690.5  1314.19
    6202.6  33971.8  12825.8  1332.37
    6205.5  34160.2  12971.6  1348.09
    6208.4  34361.1  13116.9  1371.34
    6211.3  34536.6  13258.8  1396.12
    6214.21  34707.6  13398.1  1419.43
    6217.2  34881.1  13538  1440.26
    6220.2  35067.1  13681.4  1455.62
    6223.19  35269.7  13838.2  1463.52
    6226.19  35445.8  13978.6  1472.94
    6229.2  35649.4  14127.5  1480.89
    6232.28  35841.5  14272  1486.37
    6235.38  35976.2  14401.9  1490.38
    6238.47  36297.4  14601.3  1503.91
    6241.56  35644.1  14415.3  1477.98
    6244.75  36453.4  14816.7  1513.58
    6247.85  36651.1  14975.7  1537.7
    6251.04  36995.4  15197.2  1572.35
    6254.23  37190.2  15359.1  1607.54
    6257.43  37358.6  15516.6  1647.25
    6260.71  37574.5  15695.6  1685.49
    6263.91  37746.9  15857.2  1713.26
    6267.2  37995.8  16066.2  1739.55
    6270.49  38185.2  16249.7  1760.38
    6273.79  38389.2  16444.8  1784.74
    6277.17  38584.7  16643.3  1814.62
    6280.48  38821.8  16852.4  1842.04
    6283.86  39000.3  17046  1868.98
    6287.26  39197.4  17258.1  1892.45
    6290.65  39425  17481.7  1922.45
    6294.06  39642.1  17697.8  1948.98
    6297.54  39861.8  17924.4  1983.04
    6300.95  40093  18156.5  2016.63
    6304.45  40317.7  18385.2  2049.74
    6307.95  40452.9  18578.3  2075.39
    6311.54  40713.7  18827  2107.57
    6315.05  40963  19077.2  2134.27
    6318.56  41158.8  19297.9  2156.5
    6322.16  41394.1  19538.1  2180.27
    6325.77  41609  19778.8  2201.56
    6329.38  41852.4  20022  2230.38
    6333.07  42074.3  20268.7  2256.72
    6336.69  42284.8  20511.9  2284.6
    6340.4  42517.7  20766.7  2319.01
    6344.11  42739.2  21017  2353.94
    6347.83  42931.3  21252.7  2394.41
    6351.55  43182.8  21522  2433.4
    6355.27  43426.9  21787.8  2475.92
    6359.09  43631.5  22041.1  2515.98
    6362.82  43856.6  22303.9  2558.55
    6366.65  44091.3  22571.2  2608.66
    6370.47  44281.4  22821.1  2649.3
    6374.31  44504.1  23097.4  2688.47
    6378.23  44716.4  23352.2  2724.17
    6382.07  44934.1  23616.6  2758.39
    6386.01  45159.4  23896.5  2794.15
    6389.95  45401.2  24170.9  2833.43
    6393.89  45629.5  24453.8  2875.24
    6397.84  45795.4  24696.2  2911.58
    6401.88  46008.8  24975.1  2950.45
    6405.84  46254.7  25265.5  2989.85
    6409.89  46484.1  25564.4  3029.78
    6413.95  46720.1  25864.9  3070.23
    6418.01  46936.6  26161.8  3114.22
    6422.08  47159.6  26450.3  3157.73
    6426.15  47359.1  26734.3  3197.78
    6430.32  47594.2  27055.8  3239.35
    6434.4  47769.8  27338.8  3272.45
    6438.58  47985.9  27658.3  3312.08
    6442.76  48199.6  27972.3  3355.24
    6446.95  48476.7  28335.8  3406.93
    6451.23  48697.4  28674.9  3466.15
    6455.43  48880.7  28977.4  3515.89
    6459.72  49112.4  29341.5  3573.17
    6463.93  49367.7  29706  3628.98
    6468.24  49563.5  30042.1  3683.31
    6472.55  49766.8  30377.7  3732.17
    6476.95  50005.7  30755.8  3789.56
    6481.28  50214  31110.4  3844.48
    6485.61  50447.9  31483.6  3901.93
    6490.03  50696.4  31873.2  3960.91
    6494.46  50896.3  32241.3  4012.41
    6498.9  51120.8  32625  4066.45
    6503.34  51332.8  32992.2  4116.02
    6507.79  51565.4  33388.8  4175.11
    6512.34  51749.4  33765  4236.73
    6516.8  51955  34157.7  4297.89
    6521.35  52213.1  34588.9  4369.56
    6525.92  52397.8  34975.6  4430.78
    6530.49  52613.9  35368.9  4495.51
    6535.07  52829.6  35780.6  4558.78
    6539.65  53048.8  36199.8  4622.58
    6544.25  53214.6  36574.6  4681.91
    6548.94  53425.8  36995.9  4738.76
    6553.54  53585.6  37372.7  4794.14
    6558.24  53772.9  37770.9  4858.06
    6562.95  53996.8  38200.7  4924.5
    6567.67  54191.2  38617.1  4990.47
    6572.4  54465.1  39082.9  5065.97
    6577.22  54631.5  39499.2  5134.99
    6581.96  54806.4  39903.1  5203.55
    6586.79  55037.9  40356.4  5273.64
    6591.55  55251.9  40788.3  5349.26
    6596.4  55414.4  41200.6  5416.4
    6601.26  55630.5  41657.5  5490.07
    6606.12  55841.1  42110.9  5567.28
    6611.09  56027.2  42561.8  5638.01
    6615.97  56246.8  43029.2  5720.27
    6620.95  56445  43477.2  5785.06
    6625.85  56640.6  43952.6  5858.37
    6630.85  56845.8  44419.6  5943.22
    6635.85  57038.6  44902  6021.6
    6640.87  57239.8  45374  6102.5
    6645.89  57406.6  45833.5  6178.94
    6650.92  57553.9  46285.4  6262.9
    6655.96  57775.8  46791.9  6344.39
    6661.1  57985.1  47293.9  6429.41
    6666.15  58127  47737.5  6502.96
    6671.31  58339.4  48256.5  6591.04
    6676.47  58508.4  48751  6669.65
    6681.64  58636.8  49211.1  6756.78
    6686.82  58804.8  49700.7  6839.45
    6692.01  58846.4  50101.7  6907.65
    6697.3  58665.4  50320.3  6955.37
    6702.51  56379  48701.4  6746.62
    6707.72  60775.1  52874  7341.4
    6713.04  60632.7  53164.1  7392.71
    6718.37  60473.8  53422.7  7452.55
    6723.7  60536.5  53869.9  7526.92
    6729.05  60563.7  54289.5  7606.82
    6734.4  60540.4  54673.7  7679.25
    6739.77  60524.7  55073.3  7765.2
    6745.14  61031.5  55938.5  7912.68
    6750.61  60119.8  55512.2  7871.7
    6756  57972.6  53938.4  7668.24
    6761.5  60925  57121.1  8144.31
    6766.91  61848.9  58411.3  8350.91
    6772.42  60381.3  57439.1  8231.04
    6777.94  62345.2  59764.3  8590.7
    6783.48  62303.7  60173  8667.89
    6789.02  62161.6  60478.3  8735.6
    6794.57  62115.2  60886.1  8811.85
    6800.23  61845.2  61063.4  8867.62
    6805.8  59263.8  58926.1  8583.92
    6811.48  64550.8  64689.4  9444.76
    6817.07  63694.5  64297.3  9412.12
    6822.77  63570.6  64640.6  9493.01
    6828.47  63556.3  65098.4  9586.43
    6834.19  63630.5  65656.8  9696.37
    6839.92  63781.2  66303.6  9820.85
    6845.66  63805.4  66837  9911.85
    6851.4  63946.2  67465.9  10029.4
    6857.16  64041.5  68066.2  10144.5
    6863.03  64157.3  68695.1  10269
    6868.81  64276.7  69337.5  10388.2
    6874.7  64313.5  69902.5  10497.8
    6880.5  64462.9  70576.9  10625
    6886.41  64530.9  71184.8  10747.7
    6892.33  64693.3  71903.3  10888.9
    6898.26  64783.3  72550.2  11010.7
    6904.2  64840.8  73157.7  11132
    6910.15  64840.8  73718.7  11249.8
    6916.11  64955.4  74393.2  11384.2
    6922.09  64954.5  74979.2  11499.1
    6928.18  65028.1  75606.7  11638.5
    6934.17  65146.2  76315.7  11774.4
    6940.28  65176.9  76941.2  11898.9
    6946.3  65235.1  77581.3  12027.9
    6952.43  65314.8  78244.8  12176.4
    6958.57  65298  78855.9  12305.5
    6964.62  65395.8  79566.4  12451.1
    6970.78  65431.1  80177.5  12580.2
    6976.96  65405.9  80754.1  12700.8
    6983.15  65537.2  81521.2  12857
    6989.35  65610.1  82229.8  12988.7
    6995.66  65604.5  82845  13115.9
    7001.88  65722.4  83624.6  13272.7
    7008.12  65760.9  84292.8  13410
    7014.47  65785.8  84936.4  13546.8
    7020.72  65825.3  85604.6  13690.1
    7027.1  65821.3  86230.3  13829
    7033.38  65929.9  86982.4  13988.4
    7039.77  65997  87711.1  14130.3
    7046.18  66033.6  88410.3  14278.8
    7052.6  66070.7  89097.1  14425.8
    7059.04  66112.3  89798.3  14580.3
    7065.48  66125.5  90473  14733.4
    7071.94  66186.2  91180.3  14894.9
    7078.41  66223.5  91875  15048
    7084.9  66236.2  92551.3  15194.7
    7091.39  66231.5  93198.1  15335.8
    7097.9  66225.3  93863.4  15484.5
    7104.53  66247.6  94558.2  15638.7
    7111.06  66236.5  95139.5  15784.5