File: data/Cr/k2cro4_15K_003.xdi
# XDI/1.0
# Column.1: energy eV
# Column.2: i0
# Column.3: itrans
# Column.4: irefer
# Beamline.name: SSRL 2-3
# Beamline.notes: vert slits = 0.6mm
# Detector.I0: N2 15cm
# Detector.I1: N2 30cm
# Detector.I2: N2 15cm
# Element.edge: K
# Element.symbol: Cr
# Mono.d_spacing: 3.13550
# Mono.name: Si(111)
# Mono.notes: unfocused, detuned 75%, clockwise at E=5990eV
# Sample.formula: K2CrO4
# Sample.name: K2CrO4
# Sample.prep: powder on tape (4 layers)
# Sample.reference: Cr foil
# Sample.temperature: 15K
# Scan.start_time: 1997-04-18 11:01:58
# ///
#    Note: mono d_spacing is nominal!
#     exafs to K16
#     396  E XMU XMUR I0
#-------------
#   energy   i0   itrans  irefer
    5759.99  170962  3339.7   427.3
    5769.98  170277  3406.7   438.3
    5780.01  169659  3477.7   449.3
    5790  168945  3542.7   459.3
    5799.97  168303  3614.7   473.3
    5810.03  167574  3683.7   484.3
    5820  166851  3751.7   495.3
    5830  166222  3826.7   509.3
    5839.97  165711  3904.7   523.3
    5849.98  165033  3978.7   535.3
    5860.02  164380  4052.7   550.3
    5870.02  163704  4128.7   564.3
    5879.99  163055  4207.7   578.3
    5890  162205  4278.7   590.3
    5899.97  161514  4355.7   604.3
    5909.98  160936  4437.7   620.3
    5920.02  160154  4515.7   634.301
    5930.03  159349  4589.7   648.3
    5939.99  158561  4663.7   663.3
    5950  157917  4744.7   678.3
    5959.97  157194  4821.7   693.3
    5969.97  156237  4886.7   705.3
    5970.49  156176  4890.7   705.3
    5971.01  155964  4891.7   707.3
    5971.53  155723  4888.7   706.3
    5971.97  155028  4868.7   703.3
    5972.49  153714  4831.7   697.3
    5973.01  153422  4825.7   696.3
    5973.53  154758  4870.7   703.3
    5973.98  155919  4911.7   710.3
    5974.5  156256  4927.7   713.3
    5975.02  156136  4927.7   714.3
    5975.46  156324  4939.7   715.3
    5975.98  156291  4944.7   714.3
    5976.51  156214  4945.7   716.3
    5977.03  156095  4944.7   714.3
    5977.47  156146  4951.7   715.3
    5977.99  156081  4951.7   716.3
    5978.52  156116  4955.7   716.299
    5979.04  156025  4962.7   718.3
    5979.48  156038  4964.7   717.3
    5980.01  156113  4973.7   719.3
    5980.53  156161  4977.7   719.3
    5980.97  155974  4976.7   718.3
    5981.49  155834  4976.7   719.3
    5982.02  155962  4983.7   721.3
    5982.46  156073  4990.7   722.3
    5982.99  156070  4994.7   723.3
    5983.51  156001  4995.7   722.3
    5984.03  156087  5000.7   723.3
    5984.48  156211  5007.7   726.3
    5985  156190  5013.7   727.3
    5985.52  155991  5010.7   725.3
    5985.97  155269  4990.7   722.3
    5986.49  152732  4913.7   712.3
    5987.02  147318  4736.7   687.3
    5987.46  139798  4496.7   651.3
    5987.99  136918  4402.7   639.3
    5988.51  142924  4594.7   664.3
    5989.03  147414  4742.7   682.3
    5989.48  149908  4817.7   691.3
    5990  151701  4869.7   691.3
    5990.53  152538  4884.7   679.3
    5990.98  153056  4887.7   662.3
    5991.5  153222  4867.7   640.3
    5992.02  153339  4827.7   621.3
    5992.47  153399  4766.7   604.3
    5992.99  153654  4643.7   579.3
    5993.52  153616  4399.7   541.3
    5993.97  153579  4037.7   492.3
    5994.49  153452  3317.7   401.3
    5995.02  153593  2603.7   312.3
    5995.47  153662  2561.7   307.3
    5995.99  153564  3211.7   379.3
    5996.51  153516  3959.7   466.3
    5996.96  153386  4330.7   509.3
    5997.49  153565  4556.7   534.3
    5998.01  153455  4664.7   546.299
    5998.54  153233  4708.7   547.3
    5998.99  153163  4721.7   542.3
    5999.51  153138  4709.7   532.3
    6000.04  153021  4670.7   517.3
    6000.49  152848  4616.7   502.3
    6001.01  152213  4514.7   481.3
    6001.46  151687  4427.7   463.3
    6001.99  150623  4325.7   444.3
    6002.51  150615  4275.7   431.3
    6002.96  151598  4290.7   427.3
    6003.49  152841  4338.7   427.3
    6004.02  153190  4375.7   425.3
    6004.47  153213  4388.7   423.3
    6004.99  152983  4386.7   417.3
    6005.52  152783  4368.7   411.3
    6005.97  152857  4335.7   405.3
    6006.5  152765  4265.7   395.3
    6007.02  152709  4183.7   383.3
    6007.47  152638  4094.7   375.3
    6008  152458  3954.7   357.3
    6008.53  152608  3752.7   337.3
    6008.98  152593  3539.7   314.3
    6009.5  152423  3281.7   289.3
    6010.03  152328  3055.7   265.3
    6010.94  152306  2803.46   241.064
    6011.84  152339  2675.73   229.358
    6012.82  152233  2643.51   232.181
    6013.8  152109  2650.81   237.534
    6014.78  152132  2691.62   246.415
    6015.76  152219  2719.94   253.826
    6016.81  152228  2706.78   254.765
    6017.8  152272  2666.14   250.234
    6018.93  152252  2560   236.233
    6019.99  152326  2508.38   229.76
    6021.12  152401  2517.27   226.817
    6022.18  152522  2505.68   226.402
    6023.39  152557  2442.6   219.518
    6024.52  152748  2394.03   218.162
    6025.73  152827  2394.98   218.335
    6026.87  153079  2402.44   218.038
    6028.16  153149  2409.42   217.27
    6029.37  153230  2392.9   216.031
    6030.58  153188  2370.9   212.321
    6031.87  153347  2374.42   211.141
    6033.16  153570  2386.45   213.49
    6034.53  153868  2399.99   212.367
    6035.82  153911  2399.05   212.774
    6037.19  154123  2372.62   210.711
    6038.56  154272  2334.7   207.176
    6040  154621  2297.3   202.171
    6041.37  154850  2285.41   199.695
    6042.82  155104  2308.03   201.748
    6044.26  155347  2356.17   206.331
    6045.71  155629  2427.82   213.442
    6047.24  155824  2523.98   224.083
    6048.76  156197  2617.67   232.252
    6050.29  156646  2678.86   239.952
    6051.82  156981  2727.56   245.181
    6053.42  157242  2785.78   253.938
    6054.95  157515  2825.51   261.225
    6056.56  157840  2857.76   267.041
    6058.24  158226  2899.52   272.386
    6059.85  158519  2953.79   280.26
    6061.53  158766  3013.58   287.664
    6063.22  159066  3074.88   294.597
    6064.91  159136  3123.7   299.059
    6066.68  159616  3175.02   300.05
    6068.36  160049  3218.87   301.57
    6070.13  160584  3252.22   301.621
    6071.9  161074  3260.09   297.199
    6073.75  161465  3253.47   294.307
    6075.52  161945  3247.37   294.944
    6077.37  162359  3241.78   299.111
    6079.22  162778  3234.7   301.807
    6081.15  163323  3226.14   306.031
    6083  163846  3226.09   311.786
    6084.93  164507  3239.55   317.069
    6086.87  165068  3259.53   319.881
    6088.8  165534  3285.02   322.223
    6090.81  166067  3328.02   321.094
    6092.83  166595  3374.54   319.494
    6094.84  167035  3415.58   316.423
    6096.86  167605  3449.12   311.882
    6098.88  168408  3475.18   308.87
    6100.98  169065  3489.76   308.387
    6103.07  169848  3508.84   311.433
    6105.18  170197  3508.44   315.008
    6107.28  170783  3501.56   320.112
    6109.46  171556  3493.18   328.746
    6111.64  172023  3490.32   334.909
    6113.83  172680  3508.98   343.601
    6116.01  173254  3531.15   347.822
    6118.28  174035  3545.83   351.573
    6120.47  174732  3551.02   349.853
    6122.74  175595  3557.73   350.662
    6125.01  176197  3563.95   351
    6127.36  176963  3585.69   353.868
    6129.64  177679  3628.94   360.264
    6131.99  178495  3679.7   367.19
    6134.35  179098  3732.98   375.645
    6136.79  179928  3808.77   385.629
    6139.15  180731  3888.07   394.143
    6141.59  181316  3950.89   400.185
    6144.04  182158  4008.22   405.757
    6146.48  183021  4055.07   407.858
    6148.93  183770  4098.42   410.488
    6151.46  184487  4146.3   412.648
    6153.99  185015  4193.68   416.336
    6156.53  185929  4243.58   420.554
    6159.06  186641  4284   422.302
    6161.6  187556  4328.92   423.578
    6164.22  188209  4371.36   423.383
    6166.84  188962  4413.32   424.718
    6169.47  190010  4469.78   431.582
    6172.1  190724  4524.76   439.975
    6174.81  191553  4588.26   450.897
    6177.52  192270  4658.27   464.349
    6180.23  193131  4727.79   478.329
    6182.95  193993  4794.83   489.839
    6185.67  194954  4844.37   495.878
    6188.47  195801  4890.43   501.447
    6191.27  196569  4936.01   508.544
    6194.08  197528  4991.1   515.17
    6196.89  198397  5038.71   523.327
    6199.7  199275  5078.82   529.012
    6202.6  199989  5123.45   536.227
    6205.5  201010  5175.6   545.97
    6208.4  201901  5225.26   553.243
    6211.3  202937  5273.42   560.044
    6214.21  204092  5321.11   566.376
    6217.2  204936  5365.31   575.236
    6220.2  205871  5421.02   577.625
    6223.19  206781  5482.25   582.544
    6226.19  207772  5542.99   587.992
    6229.2  208829  5600.24   590.97
    6232.28  209698  5655   590.477
    6235.38  210133  5700.28   595.512
    6238.47  212625  5797.08   602.076
    6241.56  208580  5711.38   593.171
    6244.75  212515  5848.2   605.794
    6247.85  214333  5933.54   615.946
    6251.04  215541  6001.39   629.628
    6254.23  216268  6064.75   642.839
    6257.43  217312  6133.63   660.579
    6260.71  218528  6215.01   676.848
    6263.91  219444  6291.92   686.646
    6267.2  220404  6367.33   697.974
    6270.49  221340  6440.27   707.832
    6273.79  222341  6517.71   717.218
    6277.17  223385  6593.66   727.132
    6280.48  224230  6668.14   737.577
    6283.86  225195  6739.12   747.551
    6287.26  226350  6816.61   756.053
    6290.65  227255  6896.62   766.086
    6294.06  228338  6990.15   777.646
    6297.54  229411  7082.19   790.737
    6300.95  230133  7163.74   804.357
    6304.45  231347  7262.81   817.506
    6307.95  232279  7357.39   831.185
    6311.54  233397  7458.48   843.392
    6315.05  234279  7535.09   855.128
    6318.56  235384  7619.21   863.394
    6322.16  236334  7693.84   870.188
    6325.77  237288  7785.99   878.513
    6329.38  238629  7883.65   889.366
    6333.07  239501  7983.82   898.749
    6336.69  240669  8086.51   909.661
    6340.4  241649  8184.72   923.102
    6344.11  242821  8271.43   936.072
    6347.83  243589  8356.66   949.57
    6351.55  244671  8450.4   963.6
    6355.27  245605  8539.65   977.157
    6359.09  246466  8623.43   992.244
    6362.82  247309  8706.71  1006.86
    6366.65  248376  8796.51  1023.01
    6370.47  249305  8895.81  1034.68
    6374.31  250492  8988.64  1050.88
    6378.23  251399  9092.98  1063.62
    6382.07  252489  9199.83  1077.88
    6386.01  253066  9292.2  1091.67
    6389.95  253991  9392.07  1104.99
    6393.89  255050  9506.47  1119.84
    6397.84  256051  9601.37  1134.22
    6401.88  256936  9700.79  1146.13
    6405.84  257817  9798.72  1158.57
    6409.89  258913  9908.17  1174.53
    6413.95  259838  10019.1  1187.03
    6418.01  260564  10109.6  1204.05
    6422.08  261520  10221.6  1219.61
    6426.15  262477  10338.1  1237.69
    6430.32  263380  10449.1  1256.3
    6434.4  264465  10577.6  1272.45
    6438.58  265068  10694.7  1289.12
    6442.76  265946  10815.2  1305.32
    6446.95  266788  10940.3  1320.05
    6451.23  267857  11070.9  1341.31
    6455.43  268474  11184  1360.09
    6459.72  269294  11306.6  1379.41
    6463.93  270229  11437.7  1402.26
    6468.24  271327  11585.3  1424.63
    6472.55  271965  11699.5  1440.54
    6476.95  272972  11838.2  1460.97
    6481.28  273722  11963.3  1479.93
    6485.61  274786  12104  1500.43
    6490.03  275257  12225.2  1520.45
    6494.46  275969  12357  1540
    6498.9  276978  12502.2  1564.08
    6503.34  278201  12653.9  1583.69
    6507.79  278994  12790.2  1601.83
    6512.34  279202  12905  1624.5
    6516.8  280041  13042.3  1647.69
    6521.35  280954  13192.1  1671.42
    6525.92  281934  13349.4  1699.67
    6530.49  282732  13495.2  1721.46
    6535.07  283440  13625.5  1742.77
    6539.65  284153  13770.4  1764.61
    6544.25  284671  13895.8  1781.98
    6548.94  285076  14023.6  1799.89
    6553.54  285652  14154  1818.32
    6558.24  286191  14296.9  1842.28
    6562.95  286854  14439.4  1863.77
    6567.67  287454  14578.3  1890.78
    6572.4  288355  14737.8  1918.33
    6577.22  288774  14877.7  1941.41
    6581.96  289432  15032.2  1972.01
    6586.79  290072  15184.2  1995.15
    6591.55  290651  15323.7  2014.81
    6596.4  291122  15468.7  2037.01
    6601.26  291757  15623.2  2066.73
    6606.12  292089  15764.3  2088.98
    6611.09  293138  15947.8  2115.76
    6615.97  293722  16105.9  2145.07
    6620.95  294295  16260.5  2168.91
    6625.85  294252  16380.6  2192.28
    6630.85  295363  16576.2  2223.18
    6635.85  295535  16715.3  2245.6
    6640.87  295860  16867  2272.56
    6645.89  296527  17042.1  2302.05
    6650.92  296834  17191.8  2331.06
    6655.96  297237  17350  2358.61
    6661.1  297507  17508.7  2388.68
    6666.15  298270  17687.9  2416.28
    6671.31  298414  17842.6  2443.41
    6676.47  298656  17996.8  2469.07
    6681.64  298870  18159.6  2498.26
    6686.82  298600  18285.8  2521.98
    6692.01  298255  18409.6  2543.23
    6697.3  296664  18467.9  2559
    6702.51  284215  17855.7  2482.31
    6707.72  319356  20204  2812.14
    6713.04  307589  19601.9  2736.51
    6718.37  305783  19642.2  2753.41
    6723.7  305281  19772.1  2777.83
    6729.05  304478  19885.4  2802.78
    6734.4  302953  19951.3  2818.26
    6739.77  308530  20477.7  2897.27
    6745.14  304792  20393.6  2896.81
    6750.61  300023  20213.1  2883.88
    6756  299416  20373  2912.48
    6761.5  306961  21072.5  3011.61
    6766.91  308673  21318.4  3063.27
    6772.42  301477  20989.9  3021.46
    6777.94  309553  21719.9  3137.17
    6783.48  308885  21851.4  3164.42
    6789.02  307825  21962.4  3193.19
    6794.57  306943  22074  3216.49
    6800.23  303619  22004  3215.33
    6805.8  292209  21383.6  3132.69
    6811.48  320922  23613.6  3464.58
    6817.07  314674  23355.2  3435
    6822.77  313515  23460.3  3458.94
    6828.47  312268  23562.9  3485.42
    6834.19  311911  23727.1  3517.43
    6839.92  311988  23931.7  3553.97
    6845.66  311858  24116.9  3591.04
    6851.4  311613  24287.6  3624.63
    6857.16  311538  24481.7  3664.75
    6863.03  311259  24662.4  3701.41
    6868.81  311288  24873.7  3744.59
    6874.7  311356  25092.4  3784.3
    6880.5  311669  25309.6  3823.54
    6886.41  311268  25494.4  3868.31
    6892.33  311306  25714.6  3909.61
    6898.26  311519  25947.4  3962.44
    6904.2  311590  26169.7  3998.8
    6910.15  311505  26368.5  4041.69
    6916.11  311393  26580.8  4083.1
    6922.09  310990  26768.7  4123.05
    6928.18  310633  26960  4161.52
    6934.17  310799  27196.9  4213.53
    6940.28  310771  27422.2  4255.06
    6946.3  310945  27675.1  4307.12
    6952.43  310441  27864.5  4346.72
    6958.57  310571  28093.5  4394.84
    6964.62  310541  28308.9  4436.49
    6970.78  310782  28566.8  4487.67
    6976.96  310519  28781.3  4528.38
    6983.15  310569  29015.2  4582.61
    6989.35  310408  29235.7  4629.38
    6995.66  310356  29464.7  4677.68
    7001.88  310108  29676.2  4724.5
    7008.12  310399  29942.3  4777.86
    7014.47  310007  30149.8  4818.74
    7020.72  310008  30388.8  4873.15
    7027.1  309832  30605.4  4924.09
    7033.38  309310  30800.5  4970.57
    7039.77  309416  31053.1  5023.57
    7046.18  309650  31314.2  5079.1
    7052.6  309283  31529.8  5126.15
    7059.04  309514  31803  5177.74
    7065.48  309568  32048.6  5233.86
    7071.94  309203  32259.8  5279.51
    7078.41  309095  32503.4  5343.69
    7084.9  308663  32707.6  5395.39
    7091.39  309044  33011.3  5457.62
    7097.9  308877  33256.5  5514.38
    7104.53  308644  33489.3  5578.68
    7111.06  308405  33740.5  5632.5