File: data/Cr/k2cro4_rt_002.xdi
# XDI/1.0
# Column.1: energy eV
# Column.2: i0
# Column.3: itrans
# Column.4: irefer
# Beamline.name: SSRL 2-3
# Beamline.notes: vert slits = 0.6mm
# Detector.I0: N2 15cm
# Detector.I1: N2 30cm
# Detector.I2: N2 15cm
# Element.edge: K
# Element.symbol: Cr
# Mono.d_spacing: 3.13550
# Mono.name: Si(111)
# Mono.notes: unfocused, detuned 75%, clockwise at E=5990eV
# Sample.formula: K2CrO4
# Sample.name: K2CrO4
# Sample.prep: powder on tape (5 layers)
# Sample.reference: Cr foil
# Sample.temperature: room temperature
# Scan.start_time: 1997-04-17 22:36:29
# ///
#    Note: mono d_spacing is nominal!
#     exafs to K16
#     396  E XMU XMUR I0
#-------------
#   energy   i0   itrans  irefer
    5759.99  25333.9  7326.5   936.7
    5769.98  25311.9  7478.5   960.701
    5780.01  25296.9  7638.5   989.699
    5790  25266.9  7796.5  1014.7
    5799.97  25231.9  7955.5  1041.7
    5810.03  25212.9  8124.5  1069.7
    5820  25164.9  8287.5  1097.7
    5830  25123.9  8447.5  1125.7
    5839.97  25091.9  8617.5  1156.7
    5849.98  25033.9  8784.5  1185.7
    5860.02  24999.9  8953.5  1213.7
    5870.02  24966.9  9132.5  1247.7
    5879.99  24928.9  9310.5  1278.7
    5890  24886.9  9484.5  1308.7
    5899.97  24851.9  9673.5  1340.7
    5909.98  24815.9  9851.5  1374.7
    5920.02  24762.9  10029.5  1407.7
    5930.03  24719.9  10209.5  1442.7
    5939.99  24668.9  10385.5  1474.7
    5950  24632.9  10573.5  1508.7
    5959.97  24573.9  10747.5  1543.7
    5969.97  24502.9  10916.5  1574.7
    5970.49  24474.9  10913.5  1572.7
    5971.01  24439.9  10906.5  1572.7
    5971.53  24322.9  10862.5  1567.7
    5971.97  24177.9  10805.5  1558.7
    5972.49  24111.9  10793.5  1557.7
    5973.01  24231.9  10853.5  1565.7
    5973.53  24410.9  10945.5  1580.7
    5973.98  24477.9  10983.5  1587.7
    5974.5  24493.9  11003.5  1587.7
    5975.02  24513.9  11024.5  1592.7
    5975.46  24528.9  11035.5  1596.7
    5975.98  24514.9  11038.5  1595.7
    5976.51  24509.9  11041.5  1596.7
    5977.03  24519.9  11060.5  1599.7
    5977.47  24530.9  11072.5  1599.7
    5977.99  24506.9  11070.5  1601.7
    5978.52  24510.9  11083.5  1603.7
    5979.04  24527.9  11099.5  1605.7
    5979.48  24530.9  11107.5  1607.7
    5980.01  24517.9  11111.5  1606.7
    5980.53  24518.9  11119.5  1608.7
    5980.97  24528.9  11128.5  1610.7
    5981.49  24535.9  11141.5  1612.7
    5982.02  24536.9  11149.5  1611.7
    5982.46  24529.9  11152.5  1614.7
    5982.99  24547.9  11170.5  1615.7
    5983.51  24583.9  11197.5  1618.7
    5984.03  24573.9  11201.5  1617.7
    5984.48  24562.9  11195.5  1619.7
    5985  24535.9  11192.5  1617.7
    5985.52  24390.9  11124.5  1606.7
    5985.97  24082.9  10986.5  1587.7
    5986.49  23339.9  10656.5  1539.7
    5987.02  21837.9  9974.5  1440.7
    5987.46  21238.9  9702.5  1399.7
    5987.99  22267.9  10172.5  1463.7
    5988.51  23179.9  10586.5  1518.7
    5989.03  23658.9  10792.5  1540.7
    5989.48  23902.9  10897.5  1544.7
    5990  24068.9  10952.5  1526.7
    5990.53  24158.9  10960.5  1484.7
    5990.98  24202.9  10941.5  1443.7
    5991.5  24245.9  10881.5  1398.7
    5992.02  24240.9  10736.5  1355.7
    5992.47  24257.9  10530.5  1309.7
    5992.99  24281.9  10110.5  1240.7
    5993.52  24306.9  9279.5  1123.7
    5993.97  24305.9  8050.5   966.7
    5994.49  24302.9  6381.5   757.7
    5995.02  24317.9  5965.5   704.7
    5995.47  24317.9  7042.5   823.7
    5995.99  24312.9  8701.5  1014.7
    5996.51  24332.9  9793.5  1141.7
    5996.96  24330.9  10231.5  1191.7
    5997.49  24345.9  10498.5  1222.7
    5998.01  24323.9  10620.5  1229.7
    5998.54  24332.9  10664.5  1221.7
    5998.99  24329.9  10649.5  1202.7
    5999.51  24331.9  10589.5  1172.7
    6000.04  24299.9  10464.5  1133.7
    6000.49  24254.9  10302.5  1094.7
    6001.01  24162.9  10091.5  1050.7
    6001.46  24037.9  9906.5  1014.7
    6001.99  23941.9  9754.5   981.7
    6002.51  24020.9  9733.5   965.7
    6002.96  24159.9  9796.5   960.7
    6003.49  24289.9  9894.5   958.7
    6004.02  24306.9  9931.5   951.7
    6004.47  24310.9  9935.5   943.7
    6004.99  24325.9  9909.5   931.7
    6005.52  24310.9  9823.5   915.7
    6005.97  24291.9  9703.5   895.7
    6006.5  24291.9  9543.5   874.7
    6007.02  24303.9  9326.5   845.7
    6007.47  24307.9  9067.5   817.7
    6008  24287.9  8656.5   772.7
    6008.53  24282.9  8150.5   719.7
    6008.98  24296.9  7726.5   678.7
    6009.5  24294.9  7288.5   634.7
    6010.03  24281.9  6937.5   598.7
    6010.94  24293.7  6544.26   559.465
    6011.84  24290  6370.52   548.758
    6012.82  24302.8  6316.3   555.581
    6013.8  24281.1  6331.58   570.932
    6014.78  24284  6382.38   587.812
    6015.76  24316.4  6389.69   594.222
    6016.81  24323.3  6313.51   587.16
    6017.8  24326.7  6175.83   570.627
    6018.93  24324.7  6043.68   549.624
    6019.99  24337.2  5994.02   540.148
    6021.12  24379.2  5934.88   531.203
    6022.18  24409.8  5842.25   522.786
    6023.39  24426.8  5747.13   519.897
    6024.52  24435.4  5724.53   520.539
    6025.73  24476.6  5747.43   522.708
    6026.87  24520.2  5764.84   521.408
    6028.16  24539.4  5761.76   515.635
    6029.37  24563.1  5743.19   509.392
    6030.58  24612.3  5739.14   508.678
    6031.87  24654.1  5740.59   505.493
    6033.16  24696.4  5739.55   503.837
    6034.53  24714.2  5723.03   503.709
    6035.82  24751.5  5682.01   500.111
    6037.19  24805.4  5612.5   492.042
    6038.56  24862.8  5550.51   483.501
    6040  24896.7  5509.03   479.49
    6041.37  24933.1  5523.06   478.008
    6042.82  24990.1  5616.59   487.054
    6044.26  25052.6  5764.64   502.63
    6045.71  25123.6  5950.2   520.734
    6047.24  25171.1  6162.26   540.368
    6048.76  25226.2  6334.84   558.53
    6050.29  25279.8  6438.93   572.221
    6051.82  25366.9  6560.53   588.442
    6053.42  25423.5  6696.64   608.191
    6054.95  25485.7  6798.26   624.468
    6056.56  25537.4  6884.39   639.277
    6058.24  25604.6  6996.04   654.613
    6059.85  25674.4  7110.18   669.478
    6061.53  25720.6  7221.85   683.872
    6063.22  25762.4  7320.02   692.795
    6064.91  25803.8  7413.71   699.248
    6066.68  25905.6  7517.9   704.229
    6068.36  25981  7588.6   703.738
    6070.13  26084.9  7647.81   698.777
    6071.9  26186.3  7683.54   694.345
    6073.75  26270.3  7706.77   695.441
    6075.52  26350.8  7721.52   700.068
    6077.37  26448.8  7743.78   711.222
    6079.22  26561.3  7761.55   722.907
    6081.15  26656.4  7785.82   737.119
    6083  26754  7816.61   750.86
    6084.93  26831.1  7850.91   762.131
    6086.87  26917.7  7896.72   769.931
    6088.8  27016.9  7959.03   769.26
    6090.81  27127.6  8023.86   764.117
    6092.83  27246.8  8089.2   753.503
    6094.84  27361.5  8147.05   741.419
    6096.86  27458.8  8189.41   728.864
    6098.88  27557.6  8222.29   722.837
    6100.98  27679.9  8259.67   720.339
    6103.07  27805.7  8291.55   723.371
    6105.18  27921.1  8317.96   736.931
    6107.28  28049  8351.87   757.02
    6109.46  28182.4  8384.3   777.639
    6111.64  28300.4  8424.23   799.786
    6113.83  28430.8  8462.67   816.461
    6116.01  28548.8  8493.63   824.667
    6118.28  28674.4  8521.1   831.401
    6120.47  28806.4  8552.07   834.664
    6122.74  28940  8598.55   836.456
    6125.01  29084.1  8663.55   841.777
    6127.36  29215.7  8741.05   850.626
    6129.64  29363.9  8836.08   865.007
    6131.99  29503.6  8948.6   882.914
    6134.35  29647.8  9066.64   900.35
    6136.79  29788.5  9203.19   917.316
    6139.15  29934.8  9334.24   929.811
    6141.59  30097.6  9473.81   940.834
    6144.04  30222.9  9596.89   951.387
    6146.48  30358.7  9723.48   960.469
    6148.93  30550.1  9859.59   970.08
    6151.46  30689  9987.2   976.219
    6153.99  30834.4  10113.3   988.888
    6156.53  30988.3  10239.9   998.085
    6159.06  31134.8  10364.1  1004.81
    6161.6  31300.8  10495.7  1009.07
    6164.22  31470.3  10626.9  1009.85
    6166.84  31644.3  10761.6  1017.17
    6169.47  31786.9  10885.8  1033.01
    6172.1  31960  11025.5  1061.38
    6174.81  32119.6  11161.7  1089.28
    6177.52  32291.8  11305.4  1115.71
    6180.23  32419.5  11423.6  1142.67
    6182.95  32620.7  11560.3  1168.15
    6185.67  32809.4  11693.6  1188.17
    6188.47  32979.6  11824.3  1205.71
    6191.27  33155.4  11947.6  1220.79
    6194.08  33335.7  12081.4  1236.39
    6196.89  33520.5  12209.7  1252.52
    6199.7  33701.9  12338.5  1271.19
    6202.6  33907.8  12475.8  1288.37
    6205.5  34049.2  12586.6  1305.09
    6208.4  34265.1  12721.9  1325.34
    6211.3  34454.6  12848.8  1348.12
    6214.21  34619.6  12974.1  1367.42
    6217.2  34823.1  13111  1384.26
    6220.2  35013.1  13245.4  1394.62
    6223.19  35197.7  13379.2  1404.52
    6226.19  35402.8  13520.6  1412.94
    6229.2  35613.4  13661.5  1419.89
    6232.28  35812.5  13805  1425.37
    6235.38  35791.2  13853.9  1421.38
    6238.47  36305.4  14130.3  1441.91
    6241.56  35482.1  13876.3  1412.98
    6244.75  36409.4  14311.7  1455.58
    6247.85  36761.1  14531.7  1484.7
    6251.04  36980.4  14700.2  1513.35
    6254.23  37203.2  14875.1  1549.54
    6257.43  37416.6  15050.6  1591.25
    6260.71  37633.5  15237.6  1628.49
    6263.91  37851.9  15422.2  1657.26
    6267.2  38075.8  15620.2  1685.56
    6270.49  38278.2  15809.7  1707.38
    6273.79  38492.2  16007.8  1731.74
    6277.17  38706.7  16212.3  1761.62
    6280.48  38936.8  16411.4  1788.04
    6283.86  39113.3  16606  1810.98
    6287.26  39356.4  16831.1  1838.45
    6290.65  39579  17049.7  1863.45
    6294.06  39801.1  17266.8  1890.98
    6297.54  40027.8  17488.4  1926.04
    6300.95  40234  17706.5  1955.63
    6304.45  40465.7  17939.2  1990.75
    6307.95  40691.9  18161.3  2018.39
    6311.54  40900.7  18380  2045.57
    6315.05  41134  18621.2  2072.27
    6318.56  41382.8  18861.9  2097.5
    6322.16  41591.1  19089.1  2118.27
    6325.77  41846  19334.8  2144.55
    6329.38  42095.4  19576  2173.38
    6333.07  42306.3  19806.7  2196.72
    6336.69  42549.8  20064.9  2227.6
    6340.4  42775.7  20294.7  2259.01
    6344.11  43023.2  20541  2293.94
    6347.83  43258.3  20787.7  2329.41
    6351.55  43511.8  21038  2369.4
    6355.27  43729.9  21274.8  2403.92
    6359.09  43962.5  21525.1  2443.97
    6362.82  44190.6  21769.9  2488.56
    6366.65  44433.3  22029.2  2532.66
    6370.47  44640.4  22271.1  2573.3
    6374.31  44936.1  22554.4  2613.47
    6378.23  45177.4  22817.2  2648.16
    6382.07  45399.1  23072.6  2683.39
    6386.01  45615.4  23334.5  2718.15
    6389.95  45873.2  23616.9  2758.43
    6393.89  46101.5  23886.8  2798.24
    6397.84  46347.4  24168.2  2836.58
    6401.88  46595.8  24457.1  2877.45
    6405.84  46841.7  24748.5  2913.85
    6409.89  47083.1  25035.4  2954.78
    6413.95  47316.1  25333.9  2995.23
    6418.01  47572.6  25640.8  3040.22
    6422.08  47820.6  25952.3  3088.73
    6426.15  48070.1  26272.3  3132.78
    6430.32  48247.2  26545.8  3170.35
    6434.4  48477.8  26857.8  3207.45
    6438.58  48756.9  27216.3  3252.08
    6442.76  48980.6  27527.3  3296.24
    6446.95  49189.7  27852.8  3345.93
    6451.23  49443.4  28203.9  3405.15
    6455.43  49652.7  28539.4  3457.9
    6459.72  49908.4  28901.5  3513.17
    6463.93  50174.7  29268  3570.97
    6468.24  50398.5  29624.1  3625.31
    6472.55  50628.8  29986.7  3676.17
    6476.95  50874.7  30365.8  3730.56
    6481.28  51104  30717.4  3787.48
    6485.61  51346.9  31087.6  3842.93
    6490.03  51602.4  31492.2  3904.91
    6494.46  51846.3  31881.3  3958.41
    6498.9  52074.8  32260  4012.45
    6503.34  52308.8  32644.2  4069.02
    6507.79  52588.4  33048.8  4131.11
    6512.34  52796.4  33424  4193.73
    6516.8  53018  33810.7  4251.89
    6521.35  53283.1  34232.9  4321.57
    6525.92  53476.8  34599.6  4384.77
    6530.49  53768.9  35025.9  4452.51
    6535.07  53960.6  35407.6  4511.78
    6539.65  54203.8  35820.8  4576.58
    6544.25  54395.6  36208.6  4632.9
    6548.94  54625.8  36621.9  4691.76
    6553.54  54855.6  37028.7  4753.14
    6558.24  55079.9  37440.9  4817.06
    6562.95  55281.8  37846.7  4881.5
    6567.67  55523.2  38285.1  4948.47
    6572.4  55749.1  38703.9  5014.97
    6577.22  55994.5  39155.2  5090
    6581.96  56227.4  39590  5161.55
    6586.79  56471.9  40060.4  5237.64
    6591.55  56687.9  40495.3  5310.26
    6596.4  56941.4  40967.6  5383.4
    6601.26  57180.5  41418.5  5461.07
    6606.12  57425.1  41904.9  5537.27
    6611.09  57633.2  42358.8  5614.01
    6615.97  57873.8  42827.2  5688.27
    6620.95  58120  43327.2  5762.06
    6625.85  58317.6  43773.6  5838.37
    6630.85  58580.8  44291.6  5919.22
    6635.85  58771.6  44772  6003.6
    6640.87  58923.8  45211  6079.5
    6645.89  59149.6  45709.5  6168.93
    6650.92  59364.9  46222.4  6254.9
    6655.96  59553.8  46701.9  6337.39
    6661.1  59816.1  47259  6429.41
    6666.15  60041  47772.5  6518.96
    6671.31  60218.4  48267.5  6601.04
    6676.47  60396.4  48771  6684.65
    6681.64  60607.8  49294.1  6770.79
    6686.82  60754.8  49774.6  6852.45
    6692.01  60808.4  50183.7  6926.65
    6697.3  60653.4  50420.3  6977.37
    6702.51  57895  48399.4  6713.62
    6707.72  63102.1  53229  7399.4
    6713.04  62528.7  53136.1  7401.72
    6718.37  62470.8  53510.7  7469.55
    6723.7  62525.5  53929.9  7547.92
    6729.05  62580.7  54383.5  7627.82
    6734.4  62606.4  54819.7  7712.24
    6739.77  63288.7  55833.3  7875.2
    6745.14  63134.5  56091.5  7933.68
    6750.61  62282.8  55826.2  7917.7
    6756  62544.6  56416.4  8029.24
    6761.5  62915  57128.1  8145.31
    6766.91  64110.9  58667.3  8391.91
    6772.42  62700.3  57777.1  8289.04
    6777.94  64591.2  59978.3  8622.7
    6783.48  64634.7  60462  8715.89
    6789.02  64617.6  60891.3  8798.61
    6794.57  64605.2  61326.1  8891.85
    6800.23  64315.2  61503.4  8942.62
    6805.8  62018.8  59751.1  8711.92
    6811.48  66898.8  64938.4  9488.76
    6817.07  66348.5  64844.3  9501.12
    6822.77  66323.6  65310.6  9593
    6828.47  66413.3  65893.4  9694.43
    6834.19  66483.5  66450.8  9807.37
    6839.92  66642.2  67108.6  9937.85
    6845.66  66807.4  67782  10059.9
    6851.4  66944.2  68432.9  10185.4
    6857.16  67087.5  69098.2  10314.5
    6863.03  67189.3  69733.1  10444.1
    6868.81  67345.7  70427.5  10574.2
    6874.7  67514.5  71158.5  10705.8
    6880.5  67667.9  71852.9  10838
    6886.41  67787.9  72538.8  10968.7
    6892.33  67950.3  73258.3  11106.9
    6898.26  68074.3  73943.2  11240.7
    6904.2  68235.8  74705.7  11387
    6910.15  68296.8  75325.7  11518.8
    6916.11  68402.4  76017.2  11654.2
    6922.09  68470.5  76677.2  11784.1
    6928.18  68588.1  77403.7  11926.5
    6934.17  68749.2  78182.7  12075.4
    6940.28  68871.9  78919.2  12234.9
    6946.3  68977.1  79630.3  12373.9
    6952.43  69080.8  80363.8  12518.4
    6958.57  69252  81174.9  12682.5
    6964.62  69338.8  81894.4  12828
    6970.78  69478.1  82669.5  12986.2
    6976.96  69627.9  83454.1  13138.8
    6983.15  69735.2  84194.2  13285
    6989.35  69807.1  84906.8  13420.7
    6995.66  69904.5  85644  13575.9
    7001.88  70067.4  86460.6  13741.7
    7008.12  70076.9  87120.8  13882
    7014.47  70247.8  87958.4  14049.8
    7020.72  70340.3  88720.6  14199.1
    7027.1  70396.3  89452.2  14359
    7033.38  70447.9  90170.4  14505.4
    7039.77  70571  90988.1  14673.3
    7046.18  70625.6  91734.3  14825.8
    7052.6  70677.7  92467.1  14989.8
    7059.04  70790.3  93294.3  15157.3
    7065.48  70781.5  93960  15302.4
    7071.94  70859.2  94733.3  15469.9
    7078.41  70963.5  95544  15643
    7084.9  71004.2  96315.3  15806.7
    7091.39  71079.5  97091.1  15975.8
    7097.9  71149.3  97875.4  16151.5
    7104.53  71245.6  98719.2  16332.8
    7111.06  71306.5  99522.5  16502.5