File: data/Cr/na2cro4_rt_002.xdi
# XDI/1.0
# Column.1: energy eV
# Column.2: i0
# Column.3: itrans
# Column.4: irefer
# Beamline.name: SSRL 2-3
# Beamline.notes: vert slits = 0.6mm
# Detector.I0: N2 15cm
# Detector.I1: N2 30cm
# Detector.I2: N2 15cm
# Element.edge: K
# Element.symbol: Cr
# Mono.d_spacing: 3.13550
# Mono.name: Si(111)
# Mono.notes: unfocused, detuned 75%, clockwise at E=5990eV
# Sample.formula: Na2CrO4
# Sample.name: Na2CrO4
# Sample.prep: powder on tape (4 layers)
# Sample.reference: Cr foil
# Sample.temperature: room temp
# Scan.start_time: 1997-04-17 23:39:33
# ///
#    Note: mono d_spacing is nominal!
#     exafs to K16
#     396  E XMU XMUR I0
#-------------
#   energy   i0   itrans  irefer
    5759.99  24927.9  18172.5  2309.7
    5769.98  24891.9  18470.5  2363.7
    5780.01  24856.9  18770.5  2418.7
    5790  24830.9  19093.5  2475.7
    5799.97  24784.9  19392.5  2529.7
    5810.03  24761.9  19710.5  2584.7
    5820  24727.9  20035.5  2643.7
    5830  24702.9  20367.5  2705.7
    5839.97  24674.9  20694.5  2765.7
    5849.98  24651.9  21033.5  2828.7
    5860.02  24615.9  21359.5  2889.7
    5870.02  24584.9  21695.5  2951.7
    5879.99  24543.9  22023.5  3015.7
    5890  24505.9  22368.5  3080.7
    5899.97  24457.9  22692.5  3144.7
    5909.98  24405.9  23019.5  3208.7
    5920.02  24355.9  23349.5  3272.7
    5930.03  24312.9  23680.5  3338.7
    5939.99  24260.9  24006.5  3403.7
    5950  24217.9  24339.5  3468.7
    5959.97  24179.9  24677.5  3533.7
    5969.97  24111.9  24977.5  3595.7
    5970.49  24112.9  25003.5  3599.7
    5971.01  24055.9  24960.5  3594.7
    5971.53  23922.9  24836.5  3577.7
    5971.97  23805.9  24717.5  3560.7
    5972.49  23766.9  24704.5  3556.7
    5973.01  23859.9  24811.5  3572.7
    5973.53  24017.9  25000.5  3603.7
    5973.98  24104.9  25111.5  3617.7
    5974.5  24150.9  25180.5  3627.7
    5975.02  24151.9  25196.5  3630.7
    5975.46  24142.9  25200.5  3632.7
    5975.98  24140.9  25218.5  3635.7
    5976.51  24155.9  25253.5  3641.7
    5977.03  24158.9  25273.5  3644.7
    5977.47  24134.9  25275.5  3643.7
    5977.99  24131.9  25281.5  3645.7
    5978.52  24150.9  25316.5  3651.7
    5979.04  24149.9  25339.5  3655.7
    5979.48  24126.9  25332.5  3654.7
    5980.01  24131.9  25350.5  3657.7
    5980.53  24154.9  25395.5  3664.7
    5980.97  24155.9  25418.5  3668.7
    5981.49  24134.9  25418.5  3664.7
    5982.02  24154.9  25443.5  3671.7
    5982.46  24171.9  25473.5  3675.7
    5982.99  24188.9  25517.5  3682.7
    5983.51  24162.9  25500.5  3681.7
    5984.03  24181.9  25540.5  3683.7
    5984.48  24183.9  25555.5  3685.7
    5985  24154.9  25543.5  3684.7
    5985.52  23988.9  25390.5  3661.7
    5985.97  23719.9  25107.5  3618.7
    5986.49  22979.9  24326.5  3502.7
    5987.02  21482.9  22748.5  3273.7
    5987.46  20895.9  22131.5  3181.7
    5987.99  21927.9  23247.5  3334.7
    5988.51  22852.9  24231.5  3465.7
    5989.03  23296.9  24706.5  3516.7
    5989.48  23520.9  24939.5  3522.7
    5990  23697.9  25114.5  3486.7
    5990.53  23790.9  25174.5  3392.7
    5990.98  23826.9  25172.5  3306.7
    5991.5  23845.9  25101.5  3222.7
    5992.02  23860.9  24967.5  3143.7
    5992.47  23889.9  24820.5  3080.7
    5992.99  23904.9  24444.5  2989.7
    5993.52  23880.9  23585.5  2846.7
    5993.97  23881.9  22237.5  2656.7
    5994.49  23910.9  20367.5  2408.7
    5995.02  23924.9  19927.5  2336.7
    5995.47  23905.9  21161.5  2471.7
    5995.99  23889.9  23028.5  2679.7
    5996.51  23907.9  24153.5  2811.7
    5996.96  23917.9  24583.5  2860.7
    5997.49  23901.9  24787.5  2881.7
    5998.01  23892.9  24867.5  2875.7
    5998.54  23899.9  24877.5  2846.7
    5998.99  23897.9  24802.5  2796.7
    5999.51  23871.9  24656.5  2721.7
    6000.04  23858.9  24481.5  2643.7
    6000.49  23832.9  24283.5  2576.7
    6001.01  23739.9  23985.5  2491.7
    6001.46  23598.9  23684.5  2419.7
    6001.99  23509.9  23440.5  2354.7
    6002.51  23600.9  23371.5  2315.7
    6002.96  23744.9  23374.5  2287.7
    6003.49  23845.9  23270.5  2252.7
    6004.02  23879.9  23068.5  2206.7
    6004.47  23879.9  22854.5  2168.7
    6004.99  23885.9  22571.5  2119.7
    6005.52  23873.9  22241.5  2069.7
    6005.97  23847.9  21925.5  2024.7
    6006.5  23863.9  21586.5  1973.7
    6007.02  23877.9  21190.5  1916.7
    6007.47  23865.9  20832.5  1870.7
    6008  23838.9  20379.5  1812.7
    6008.53  23855.9  19977.5  1759.7
    6008.98  23862.9  19669.5  1717.7
    6009.5  23856.9  19349.5  1675.7
    6010.03  23849.9  19068.5  1635.7
    6010.94  23854.7  18661.3  1583.46
    6011.84  23873  18366.5  1566.76
    6012.82  23863.8  18221.3  1591.58
    6013.8  23838.1  18161.6  1628.93
    6014.78  23852  18148.4  1661.81
    6015.76  23883.4  18174.7  1679.22
    6016.81  23899.3  18190.5  1681.16
    6017.8  23903.7  18160.8  1664.63
    6018.93  23912.7  18117.7  1638.62
    6019.99  23934.2  18098  1622.15
    6021.12  23964.2  18109.9  1612.2
    6022.18  23978.8  18107.3  1614.79
    6023.39  23994.8  18110.1  1627.9
    6024.52  24025.4  18098.5  1634.54
    6025.73  24062.6  18097.4  1637.71
    6026.87  24095.2  18125.8  1631.41
    6028.16  24104.4  18167.8  1618.64
    6029.37  24142.1  18269.2  1614.39
    6030.58  24188.3  18385.1  1617.68
    6031.87  24239.1  18503.6  1619.49
    6033.16  24263.4  18587.6  1623.84
    6034.53  24289.2  18652  1625.71
    6035.82  24332.5  18712  1633.11
    6037.19  24393.4  18774.5  1635.04
    6038.56  24440.8  18832.5  1634.5
    6040  24490.7  18894  1630.49
    6041.37  24498.1  18986.1  1636.01
    6042.82  24570.1  19184.6  1655.05
    6044.26  24624.6  19391.6  1681.63
    6045.71  24686.6  19599.2  1706.73
    6047.24  24726.1  19811.3  1732.37
    6048.76  24778.2  19989.8  1757.53
    6050.29  24843.8  20105.9  1781.22
    6051.82  24915.9  20246.5  1810.44
    6053.42  24994.5  20460.6  1850.19
    6054.95  25053.7  20635.3  1887.47
    6056.56  25112.4  20813.4  1924.28
    6058.24  25171.6  20983  1955.61
    6059.85  25235.4  21148.2  1984.48
    6061.53  25275.6  21274.8  2006.87
    6063.22  25315.4  21394  2020.8
    6064.91  25380.8  21535.7  2027.25
    6066.68  25455.6  21674.9  2022.23
    6068.36  25532  21816.6  2017.74
    6070.13  25627.9  21953.8  2002.78
    6071.9  25733.3  22095.5  1992.35
    6073.75  25828.3  22225.8  1991.44
    6075.52  25902.8  22334.5  2014.07
    6077.37  26001.8  22450.8  2049.22
    6079.22  26086.3  22567.5  2088.91
    6081.15  26212.4  22732.8  2137.12
    6083  26324  22875.6  2181.86
    6084.93  26418.1  23003.9  2221.13
    6086.87  26506.7  23137.7  2244.93
    6088.8  26589.9  23290  2249.26
    6090.81  26699.6  23461.9  2229.12
    6092.83  26821.8  23660.2  2198.5
    6094.84  26924.5  23832.1  2163.42
    6096.86  27056.8  24024.4  2135.86
    6098.88  27146.6  24184.3  2112.84
    6100.98  27275.9  24358.7  2110.34
    6103.07  27402.7  24522.6  2133.37
    6105.18  27516.1  24664  2176.93
    6107.28  27635  24797.9  2238.02
    6109.46  27781.4  24963.3  2307.64
    6111.64  27880.4  25106.2  2373.79
    6113.83  28028.8  25275.7  2430.46
    6116.01  28150.8  25450.6  2471.67
    6118.28  28275.4  25623.1  2494.4
    6120.47  28389.4  25794.1  2508.66
    6122.74  28530  25994.6  2522.46
    6125.01  28662.1  26180.5  2535.78
    6127.36  28798.7  26389.1  2564.63
    6129.64  28938.9  26616.1  2602
    6131.99  29088.6  26858.6  2644.91
    6134.35  29236.8  27112.6  2686.35
    6136.79  29388.5  27388.2  2720.32
    6139.15  29528.8  27644.2  2744.81
    6141.59  29674.6  27918.8  2766.83
    6144.04  29828.9  28195.9  2790.39
    6146.48  29956.7  28447.5  2805.47
    6148.93  30087.1  28716.6  2815.08
    6151.46  30246  29004.2  2827.22
    6153.99  30418.4  29323.3  2854.89
    6156.53  30557.3  29588.9  2876.08
    6159.06  30706.8  29881.1  2892.81
    6161.6  30865.8  30175.7  2890.07
    6164.22  31018.3  30474.9  2886.85
    6166.84  31189.3  30808.6  2904.17
    6169.47  31323.9  31092.8  2945.01
    6172.1  31510  31431.5  3014.38
    6174.81  31663.6  31754.7  3086.28
    6177.52  31829.8  32075.4  3161.71
    6180.23  32011.5  32416.6  3235.67
    6182.95  32191.7  32767.3  3299.15
    6185.67  32337.4  33074.6  3348.17
    6188.47  32516.6  33417.3  3392.71
    6191.27  32705.4  33769.6  3438.79
    6194.08  32856.7  34078.4  3480.39
    6196.89  33040.5  34426.7  3527.52
    6199.7  33224.9  34766.5  3578.18
    6202.6  33423.8  35133.8  3626.37
    6205.5  33586.2  35448.6  3673.09
    6208.4  33791.1  35806.9  3729.34
    6211.3  33950.6  36115.8  3788.12
    6214.21  34141.6  36458.1  3845.43
    6217.2  34322.1  36808  3890.26
    6220.2  34507.1  37150.4  3921.62
    6223.19  34708.7  37507.2  3944.52
    6226.19  34913.8  37877.6  3963.94
    6229.2  35090.4  38215.5  3974.89
    6232.28  35318.5  38614  3986.37
    6235.38  35287.2  38735.9  3974.38
    6238.47  35802.4  39471.3  4025.91
    6241.56  35004.1  38734.3  3938.98
    6244.75  35934.4  39948.7  4057.57
    6247.85  36257.1  40486.7  4127.7
    6251.04  36469.4  40898.2  4209.35
    6254.23  36663.2  41315.1  4309.54
    6257.43  36883.6  41752.6  4418.25
    6260.71  37110.5  42202.6  4516.49
    6263.91  37297.9  42609.2  4582.25
    6267.2  37516.8  43082.2  4642.55
    6270.49  37729.2  43536.7  4698.38
    6273.79  37942.2  44001.8  4755.74
    6277.17  38155.7  44480.3  4823.62
    6280.48  38359.8  44934.4  4888.04
    6283.86  38594.3  45462  4951.98
    6287.26  38793.4  45921.1  5007.45
    6290.65  39011  46413.7  5069.45
    6294.06  39245.1  46928.8  5136.98
    6297.54  39451.8  47425.4  5216.04
    6300.95  39613  47849.5  5288.63
    6304.45  39809.7  48355.2  5361.75
    6307.95  40070.9  48930.3  5435.39
    6311.54  40284.7  49457  5504.56
    6315.05  40547  50049.2  5569.27
    6318.56  40767.8  50568.9  5621.5
    6322.16  41000.1  51130.1  5665.26
    6325.77  41234  51683.8  5719.55
    6329.38  41501.4  52271  5784.38
    6333.07  41695.3  52798.7  5843.72
    6336.69  41929.8  53351  5911.6
    6340.4  42161.7  53933.7  5990.01
    6344.11  42403.2  54521  6074.95
    6347.83  42623.3  55065.7  6159.41
    6351.55  42888.8  55692  6260.4
    6355.27  43130.9  56283.8  6353.92
    6359.09  43337.5  56825.1  6445.98
    6362.82  43551.6  57382.9  6544.55
    6366.65  43820.3  57998.2  6657.66
    6370.47  44045.4  58594.1  6754.3
    6374.31  44271.1  59177.4  6844.47
    6378.23  44511.4  59803.2  6928.16
    6382.07  44707.1  60360.6  7002.39
    6386.01  44950.4  60978.5  7087.15
    6389.95  45179.2  61608.9  7176.43
    6393.89  45406.5  62226.8  7270.24
    6397.84  45670.4  62915.2  7365.58
    6401.88  45923.8  63577.1  7457.45
    6405.84  46146.7  64224.5  7541.84
    6409.89  46394.1  64923.4  7638.78
    6413.95  46657.1  65622.9  7736.23
    6418.01  46849.6  66276.8  7836.22
    6422.08  47120.6  67006.3  7947.73
    6426.15  47343.1  67676.3  8045.78
    6430.32  47554.2  68357.8  8138.35
    6434.4  47802.8  69083.8  8227.45
    6438.58  48005.9  69760.3  8311.08
    6442.76  48282.6  70559.3  8418.25
    6446.95  48530.7  71301.8  8530.93
    6451.23  48748.4  72018.9  8651.15
    6455.43  48970.7  72742.4  8772.89
    6459.72  49245.4  73601.5  8917.17
    6463.93  49497.7  74402  9041.97
    6468.24  49720.5  75130.1  9160.31
    6472.55  49948.8  75892.7  9271.17
    6476.95  50206.7  76751.8  9403.56
    6481.28  50456  77562.4  9531.48
    6485.61  50684.9  78332.6  9660.93
    6490.03  50934.4  79175.2  9788.91
    6494.46  51153.3  79970.3  9905.42
    6498.9  51407.8  80808  10026.5
    6503.34  51634.8  81632.1  10145
    6507.79  51906.4  82510.8  10280.1
    6512.34  52091.4  83287  10414.7
    6516.8  52301  84085.7  10545.9
    6521.35  52571.1  84976.9  10696.6
    6525.92  52815.8  85852.6  10838.8
    6530.49  53087.9  86761.9  10989.5
    6535.07  53322.6  87659.6  11128.8
    6539.65  53537.8  88492.8  11262.6
    6544.25  53700.6  89239.6  11377.9
    6548.94  53936.8  90120.9  11503.8
    6553.54  54124.6  90943.7  11630.1
    6558.24  54373.9  91849.9  11768.1
    6562.95  54584.8  92731.7  11907.5
    6567.67  54799.2  93600.1  12051.5
    6572.4  55086.1  94618.9  12218
    6577.22  55329.5  95560.2  12376
    6581.96  55543.4  96446.1  12522.6
    6586.79  55806.9  97459.4  12689.6
    6591.55  56026.9  98384.3  12854.3
    6596.4  56217.4  99277.6  13002.4
    6601.26  56453.5  100248  13165.1
    6606.12  56729.1  101304  13338.3
    6611.09  56928.2  102235  13493
    6615.97  57167.8  103202  13652.3
    6620.95  57427  104279  13829.1
    6625.85  57557.6  105090  13976.4
    6630.85  57858.8  106262  14165.2
    6635.85  58063.6  107241  14334.6
    6640.87  58296.8  108281  14513.5
    6645.89  58512.6  109281  14694.9
    6650.92  58684.9  110237  14860.9
    6655.96  58852.8  111155  15025.4
    6661.1  59161.1  112352  15233.4
    6666.15  59391  113431  15423
    6671.31  59584.4  114396  15592
    6676.47  59759.4  115370  15762.6
    6681.64  59936.8  116385  15935.8
    6686.82  60082.8  117319  16105.5
    6692.01  60204.4  118188  16265.6
    6697.3  60077.4  118618  16364.4
    6702.51  57272  113759  15732.6
    6707.72  62465.1  124717  17286.4
    6713.04  61969.7  124483  17292.7
    6718.37  61933.8  125097  17419.6
    6723.7  62008.5  125936  17581.9
    6729.05  62066.7  126764  17736.8
    6734.4  62056.4  127502  17898.2
    6739.77  62752.7  129633  18241.2
    6745.14  62617.5  130117  18361.7
    6750.61  61696.8  128872  18243.7
    6756  62265.6  130865  18577.2
    6761.5  62420  131972  18784.3
    6766.91  63633.9  135256  19301.9
    6772.42  62288.3  133231  19061
    6777.94  64114.2  137870  19772.7
    6783.48  64173.7  138755  19962.9
    6789.02  64182.6  139552  20128.6
    6794.57  64264.2  140552  20335.8
    6800.23  63958.2  140624  20399.6
    6805.8  61652.8  136519  19858.9
    6811.48  66479.8  147886  21562.8
    6817.07  66024.5  147724  21593.1
    6822.77  66007.6  148572  21780
    6828.47  66099.3  149607  21987.4
    6834.19  66204.5  150714  22208.4
    6839.92  66350.2  151891  22434.9
    6845.66  66499.4  153117  22670.9
    6851.4  66667.2  154388  22916.4
    6857.16  66819.5  155628  23158.5
    6863.03  66854.3  156616  23369.1
    6868.81  67070.7  158040  23648.2
    6874.7  67225.5  159333  23897.8
    6880.5  67347.9  160574  24156
    6886.41  67477.9  161790  24404.7
    6892.33  67670.3  163200  24685.9
    6898.26  67764.3  164380  24932.7
    6904.2  67916.8  165686  25200
    6910.15  67897.8  166587  25403.8
    6916.11  68032.4  167903  25674.2
    6922.09  67895.5  168508  25842.1
    6928.18  67978.1  169752  26100.5
    6934.17  68142.2  171079  26381.4
    6940.28  68254.9  172366  26655.9
    6946.3  68322.1  173550  26900.9
    6952.43  68432.8  174858  27185.4
    6958.57  68591  176245  27486.5
    6964.62  68707.8  177497  27742
    6970.78  68835.1  178878  28031.2
    6976.96  68943.9  180176  28299.8
    6983.15  69081.2  181590  28597
    6989.35  69170.1  182902  28871.7
    6995.66  69276.5  184221  29154.9
    7001.88  69421.4  185685  29464.7
    7008.12  69532.9  186980  29747
    7014.47  69665.8  188374  30041.8
    7020.72  69756.3  189717  30339.1
    7027.1  69836.3  190967  30605
    7033.38  69949.9  192327  30911.4
    7039.77  70111  193875  31242.3
    7046.18  70130.6  195002  31499.8
    7052.6  70258.7  196443  31824.8
    7059.04  70355.3  197777  32121.3
    7065.48  70448.5  199123  32439.4
    7071.94  70494.2  200339  32712.9
    7078.41  70616.5  201802  33032
    7084.9  70689.2  203142  33348.7
    7091.39  70777.5  204509  33662.8
    7097.9  70833.3  205810  33951.5
    7104.53  70880.6  207119  34257.7
    7111.06  70937.5  208420  34557.5