File: data/Cr/na2cro4_rt_001.xdi
# XDI/1.0
# Column.1: energy eV
# Column.2: i0
# Column.3: itrans
# Column.4: irefer
# Beamline.name: SSRL 2-3
# Beamline.notes: vert slits = 0.6mm
# Detector.I0: N2 15cm
# Detector.I1: N2 30cm
# Detector.I2: N2 15cm
# Element.edge: K
# Element.symbol: Cr
# Mono.d_spacing: 3.13550
# Mono.name: Si(111)
# Mono.notes: unfocused, detuned 75%, clockwise at E=5990eV
# Sample.formula: Na2CrO4
# Sample.name: Na2CrO4
# Sample.prep: powder on tape (4 layers)
# Sample.reference: Cr foil
# Sample.temperature: room temp
# Scan.start_time: 1997-04-17 23:39:33
# ///
#    Note: mono d_spacing is nominal!
#     exafs to K16
#     396  E XMU XMUR I0
#-------------
#   energy   i0   itrans  irefer
    5759.99  25203.9  18364.5  2330.7
    5769.98  25185.9  18684.5  2386.7
    5780.01  25178.9  19016.5  2442.7
    5790  25151.9  19339.5  2499.7
    5799.97  25117.9  19653.5  2557.7
    5810.03  25083.9  19975.5  2614.7
    5820  25054.9  20302.5  2675.7
    5830  25014.9  20628.5  2733.7
    5839.97  24972.9  20956.5  2795.7
    5849.98  24927.9  21270.5  2852.7
    5860.02  24890.9  21606.5  2914.7
    5870.02  24849.9  21936.5  2977.7
    5879.99  24812.9  22268.5  3041.7
    5890  24786.9  22620.5  3105.7
    5899.97  24747.9  22960.5  3172.7
    5909.98  24712.9  23309.5  3239.7
    5920.02  24654.9  23635.5  3307.7
    5930.03  24615.9  23975.5  3374.7
    5939.99  24551.9  24301.5  3438.7
    5950  24497.9  24626.5  3502.7
    5959.97  24452.9  24949.5  3565.7
    5969.97  24382.9  25263.5  3629.7
    5970.49  24371.9  25277.5  3631.7
    5971.01  24340.9  25263.5  3629.7
    5971.53  24202.9  25129.5  3613.7
    5971.97  24082.9  25023.5  3596.7
    5972.49  24020.9  24986.5  3593.7
    5973.01  24117.9  25093.5  3608.7
    5973.53  24277.9  25278.5  3637.7
    5973.98  24381.9  25403.5  3655.7
    5974.5  24422.9  25471.5  3665.7
    5975.02  24419.9  25485.5  3669.7
    5975.46  24410.9  25493.5  3669.7
    5975.98  24415.9  25522.5  3675.7
    5976.51  24417.9  25536.5  3677.7
    5977.03  24420.9  25544.5  3680.7
    5977.47  24411.9  25561.5  3682.7
    5977.99  24414.9  25574.5  3685.7
    5978.52  24422.9  25601.5  3692.7
    5979.04  24418.9  25632.5  3692.7
    5979.48  24399.9  25624.5  3692.7
    5980.01  24432.9  25677.5  3701.7
    5980.53  24450.9  25715.5  3708.7
    5980.97  24446.9  25721.5  3708.7
    5981.49  24435.9  25727.5  3709.7
    5982.02  24452.9  25763.5  3718.7
    5982.46  24460.9  25784.5  3718.7
    5982.99  24434.9  25778.5  3718.7
    5983.51  24453.9  25813.5  3722.7
    5984.03  24483.9  25855.5  3729.7
    5984.48  24474.9  25862.5  3730.7
    5985  24422.9  25822.5  3721.7
    5985.52  24275.9  25682.5  3701.7
    5985.97  23991.9  25390.5  3654.7
    5986.49  23241.9  24609.5  3541.7
    5987.02  21730.9  23011.5  3308.7
    5987.46  21148.9  22413.5  3220.7
    5987.99  22214.9  23558.5  3380.7
    5988.51  23117.9  24518.5  3505.7
    5989.03  23561.9  24994.5  3557.7
    5989.48  23809.9  25246.5  3565.7
    5990  23993.9  25423.5  3528.7
    5990.53  24060.9  25461.5  3432.7
    5990.98  24096.9  25454.5  3343.7
    5991.5  24136.9  25408.5  3261.7
    5992.02  24169.9  25301.5  3186.7
    5992.47  24153.9  25095.5  3118.7
    5992.99  24166.9  24712.5  3025.7
    5993.52  24190.9  23891.5  2883.7
    5993.97  24202.9  22543.5  2694.7
    5994.49  24190.9  20592.5  2437.7
    5995.02  24209.9  20151.5  2364.7
    5995.47  24212.9  21445.5  2504.7
    5995.99  24212.9  23342.5  2719.7
    5996.51  24205.9  24458.5  2848.7
    5996.96  24200.9  24870.5  2898.7
    5997.49  24218.9  25111.5  2922.7
    5998.01  24212.9  25205.5  2915.7
    5998.54  24198.9  25178.5  2882.7
    5998.99  24196.9  25120.5  2831.7
    5999.51  24210.9  25014.5  2761.7
    6000.04  24167.9  24808.5  2680.7
    6000.49  24113.9  24569.5  2607.7
    6001.01  24009.9  24266.5  2522.7
    6001.46  23904.9  23992.5  2455.7
    6001.99  23811.9  23743.5  2389.7
    6002.51  23879.9  23654.5  2344.7
    6002.96  24028.9  23658.5  2318.7
    6003.49  24154.9  23580.5  2285.7
    6004.02  24183.9  23370.5  2238.7
    6004.47  24177.9  23151.5  2198.7
    6004.99  24183.9  22873.5  2151.7
    6005.52  24183.9  22547.5  2100.7
    6005.97  24173.9  22242.5  2055.7
    6006.5  24166.9  21873.5  2003.7
    6007.02  24172.9  21474.5  1947.7
    6007.47  24172.9  21117.5  1899.7
    6008  24154.9  20666.5  1839.7
    6008.53  24161.9  20246.5  1786.7
    6008.98  24166.9  19935.5  1744.7
    6009.5  24153.9  19600.5  1698.7
    6010.03  24146.9  19315.5  1656.7
    6010.94  24150.7  18896.3  1602.46
    6011.84  24178  18608.5  1586.76
    6012.82  24190.8  18471.3  1612.58
    6013.8  24174.1  18410.6  1649.93
    6014.78  24184  18397.4  1682.81
    6015.76  24224.4  18429.7  1702.22
    6016.81  24222.3  18433.5  1703.16
    6017.8  24228.7  18404.8  1686.63
    6018.93  24245.7  18363.7  1662.62
    6019.99  24269.2  18346  1644.15
    6021.12  24281.2  18336.9  1632.2
    6022.18  24290.8  18336.3  1633.79
    6023.39  24327.8  18351.1  1647.9
    6024.52  24364.4  18359.5  1657.54
    6025.73  24394.6  18349.4  1660.71
    6026.87  24412.2  18360.8  1654.41
    6028.16  24431.4  18417.8  1640.63
    6029.37  24476.1  18520.2  1638.39
    6030.58  24516.3  18632.1  1637.68
    6031.87  24548.1  18736.6  1642.49
    6033.16  24584.4  18830.6  1644.84
    6034.53  24618.2  18902  1650.71
    6035.82  24668.5  18969  1657.11
    6037.19  24702.4  19014.5  1658.04
    6038.56  24743.8  19059.5  1654.5
    6040  24782.7  19122  1654.49
    6041.37  24843.1  19250.1  1661.01
    6042.82  24889.1  19436.6  1682.05
    6044.26  24941.6  19638.6  1704.63
    6045.71  24995.6  19839.2  1732.73
    6047.24  25045.1  20061.3  1757.37
    6048.76  25111.2  20256.8  1781.53
    6050.29  25181.8  20372.9  1806.22
    6051.82  25239.9  20509.5  1834.44
    6053.42  25297.5  20691.6  1875.19
    6054.95  25361.7  20883.3  1913.47
    6056.56  25455.4  21100.4  1952.28
    6058.24  25518.6  21276  1987.61
    6059.85  25564.4  21422.2  2011.48
    6061.53  25600.6  21554.8  2031.87
    6063.22  25648.4  21688  2047.8
    6064.91  25721.8  21835.7  2055.25
    6066.68  25799.6  21972.9  2053.23
    6068.36  25878  22108.6  2044.74
    6070.13  25957.9  22237.8  2029.78
    6071.9  26049.3  22371.5  2018.34
    6073.75  26153.3  22502.8  2020.44
    6075.52  26234.8  22618.5  2043.07
    6077.37  26324.8  22740.8  2079.22
    6079.22  26426.3  22872.5  2121.91
    6081.15  26518.4  22996.8  2165.12
    6083  26627  23140.6  2211.86
    6084.93  26738.1  23284.9  2255.13
    6086.87  26860.7  23449.7  2281.93
    6088.8  26948.9  23606  2287.26
    6090.81  27030.6  23760.9  2267.12
    6092.83  27135.8  23942.2  2234.5
    6094.84  27247.5  24126.1  2199.42
    6096.86  27372.8  24313.4  2170.86
    6098.88  27485.6  24484.3  2148.84
    6100.98  27602.9  24645.7  2142.34
    6103.07  27729.7  24813.6  2165.37
    6105.18  27836.1  24946  2207.93
    6107.28  27961  25090.9  2271.02
    6109.46  28071.4  25219.3  2339.64
    6111.64  28206.4  25391.2  2409.79
    6113.83  28342.8  25568.7  2466.46
    6116.01  28481.8  25746.6  2509.67
    6118.28  28606.4  25927.1  2532.4
    6120.47  28734.4  26107.1  2547.66
    6122.74  28862  26290.6  2558.46
    6125.01  28994.1  26484.5  2572.78
    6127.36  29126.7  26707.1  2603.63
    6129.64  29272.9  26924.1  2641.01
    6131.99  29400.6  27144.6  2681.92
    6134.35  29562.8  27421.6  2724.35
    6136.79  29712.5  27688.2  2757.32
    6139.15  29862.8  27952.2  2782.81
    6141.59  30017.6  28229.8  2806.84
    6144.04  30144.9  28491.9  2827.39
    6146.48  30282.7  28760.5  2841.47
    6148.93  30430.1  29036.6  2853.08
    6151.46  30588  29334.2  2866.22
    6153.99  30766.4  29653.3  2890.89
    6156.53  30912.3  29939.9  2915.08
    6159.06  31060.8  30235.1  2928.81
    6161.6  31244.8  30554.7  2929.07
    6164.22  31408.3  30870.9  2928.85
    6166.84  31562.3  31180.6  2947.17
    6169.47  31718.9  31488.8  2988.01
    6172.1  31880  31806.5  3056.38
    6174.81  32063.6  32152.7  3132.28
    6177.52  32239.8  32494.4  3209.71
    6180.23  32403.5  32819.6  3278.67
    6182.95  32574.7  33140.3  3342.15
    6185.67  32740.4  33489.6  3393.17
    6188.47  32906.6  33826.3  3437.71
    6191.27  33062.4  34138.6  3480.79
    6194.08  33219.7  34463.4  3523.39
    6196.89  33423.5  34820.7  3575.52
    6199.7  33610.9  35169.5  3623.19
    6202.6  33792.8  35498.8  3668.37
    6205.5  33977.2  35843.6  3717.09
    6208.4  34170.1  36202.9  3774.34
    6211.3  34348.6  36535.8  3836.12
    6214.21  34506.6  36848.1  3888.42
    6217.2  34701.1  37200  3937.26
    6220.2  34909.1  37584.4  3972.62
    6223.19  35104.7  37918.2  3988.52
    6226.19  35309.8  38297.6  4009.94
    6229.2  35521.4  38671.5  4025.89
    6232.28  35694.5  39026  4035.37
    6235.38  35676.2  39163.9  4025.38
    6238.47  36195.4  39900.3  4073.91
    6241.56  35386.1  39175.3  3988.98
    6244.75  36336.4  40396.7  4109.57
    6247.85  36645.1  40907.7  4176.7
    6251.04  36886.4  41358.2  4263.36
    6254.23  37103.2  41789.1  4362.54
    6257.43  37317.6  42228.6  4470.25
    6260.71  37536.5  42668.6  4569.49
    6263.91  37756.9  43131.2  4644.25
    6267.2  37978.8  43601.2  4702.56
    6270.49  38179.2  44044.7  4754.38
    6273.79  38378.2  44500.8  4816.74
    6277.17  38601.7  44989.3  4887.63
    6280.48  38823.8  45475.4  4951.04
    6283.86  39016.3  45920  5008.98
    6287.26  39267.4  46460.1  5072.45
    6290.65  39482  46972.7  5133.45
    6294.06  39703.1  47473.8  5202.98
    6297.54  39915.8  47982.4  5281.04
    6300.95  40124  48474.5  5357.63
    6304.45  40307.7  48959.2  5427.75
    6307.95  40513.9  49464.3  5497.39
    6311.54  40739.7  49998  5563.57
    6315.05  40969  50558.2  5623.27
    6318.56  41157.8  51056.9  5672.5
    6322.16  41393.1  51603.1  5721.27
    6325.77  41649  52201.8  5779.55
    6329.38  41881.4  52757  5836.38
    6333.07  42083.3  53273.7  5899.73
    6336.69  42329.8  53864  5969.6
    6340.4  42566.7  54434.7  6043.01
    6344.11  42798.2  55010  6127.94
    6347.83  43018.3  55560.7  6217.4
    6351.55  43247.8  56121  6309.4
    6355.27  43494.9  56748.8  6402.92
    6359.09  43732.5  57339.1  6500.97
    6362.82  43965.6  57911.9  6607.56
    6366.65  44213.3  58527.2  6716.67
    6370.47  44441.4  59121  6821.3
    6374.31  44679.1  59715.4  6907.47
    6378.23  44912.4  60343.2  6992.16
    6382.07  45146.1  60950.6  7072.39
    6386.01  45407.4  61610.5  7164.15
    6389.95  45644.2  62247.9  7252.43
    6393.89  45828.5  62818.8  7340.24
    6397.84  46141.4  63547.2  7442.58
    6401.88  46373.8  64216.1  7531.45
    6405.84  46605.7  64879.5  7617.85
    6409.89  46847.1  65557.4  7710.77
    6413.95  47091.1  66237.9  7810.23
    6418.01  47310.6  66916.8  7913.22
    6422.08  47555.6  67642.3  8025.73
    6426.15  47774.1  68304.3  8120.77
    6430.32  48038.2  69058.8  8221.35
    6434.4  48283.8  69771.8  8312.45
    6438.58  48499.9  70470.3  8399.08
    6442.76  48724.6  71198.3  8490.25
    6446.95  49017.7  72039.8  8616.93
    6451.23  49251.4  72801.9  8745.15
    6455.43  49438.7  73481.4  8862.9
    6459.72  49716.4  74313.5  9001.17
    6463.93  49954.7  75088  9124.98
    6468.24  50204.5  75884.1  9248.31
    6472.55  50463.8  76716.7  9375.17
    6476.95  50716.7  77530.8  9499.56
    6481.28  50951  78326.4  9628.48
    6485.61  51184.9  79136.6  9757.93
    6490.03  51436.4  79959.2  9888.9
    6494.46  51659.3  80770.3  10000.4
    6498.9  51928.8  81665  10129.5
    6503.34  52102.8  82412.1  10239
    6507.79  52373.4  83289.8  10378.1
    6512.34  52561.4  84049  10507.7
    6516.8  52786  84888.7  10647.9
    6521.35  53012.1  85694.9  10779.6
    6525.92  53268.8  86604.6  10931.8
    6530.49  53521.9  87510.9  11083.5
    6535.07  53720.6  88321.6  11206.8
    6539.65  53936.8  89157.8  11338.6
    6544.25  54157.6  90017.6  11471.9
    6548.94  54362.8  90839.9  11591.8
    6553.54  54549.6  91659.7  11717.1
    6558.24  54788.9  92584.9  11858.1
    6562.95  55026.8  93511.7  12008.5
    6567.67  55246.2  94389.1  12150.5
    6572.4  55521.1  95385.9  12317
    6577.22  55781.5  96398.2  12481
    6581.96  55988.4  97291.1  12636.6
    6586.79  56207.9  98189.4  12794.6
    6591.55  56446.9  99131.3  12959.3
    6596.4  56663.4  100084  13119.4
    6601.26  56909.5  101092  13281.1
    6606.12  57146.1  102054  13442.3
    6611.09  57354.2  103014  13603
    6615.97  57544.8  103930  13762.3
    6620.95  57822  105017  13941.1
    6625.85  57931.6  105809  14076.4
    6630.85  58228.8  106979  14269.2
    6635.85  58410.6  107908  14435.6
    6640.87  58637.8  108915  14614.5
    6645.89  58842.6  109906  14793.9
    6650.92  58991.9  110814  14953.9
    6655.96  59215.8  111850  15135.4
    6661.1  59528.1  113046  15341.4
    6666.15  59624  113858  15487
    6671.31  59735.4  114687  15641
    6676.47  59942.4  115731  15814.7
    6681.64  60167.8  116808  16005.8
    6686.82  60361.8  117840  16190.5
    6692.01  60396.4  118565  16331.7
    6697.3  60266.4  118975  16432.4
    6702.51  57482  114168  15802.6
    6707.72  62664.1  125090  17346.4
    6713.04  62219.7  124938  17369.7
    6718.37  62161.8  125527  17496.6
    6723.7  62269.5  126413  17661.9
    6729.05  62314.7  127256  17821.8
    6734.4  62320.4  127985  17972.2
    6739.77  63038.7  130181  18331.2
    6745.14  62900.5  130657  18444.7
    6750.61  61982.8  129453  18326.7
    6756  62412.6  131179  18622.2
    6761.5  62679  132459  18852.3
    6766.91  63888.9  135738  19373.9
    6772.42  62520.3  133686  19127
    6777.94  64405.2  138436  19866.7
    6783.48  64474.7  139399  20056.9
    6789.02  64490.6  140225  20228.6
    6794.57  64496.2  141011  20402.8
    6800.23  64200.2  141158  20481.6
    6805.8  61922.8  137133  19945.9
    6811.48  66672.8  148315  21628.7
    6817.07  66254.5  148189  21665.1
    6822.77  66237.6  149028  21852
    6828.47  66351.3  150155  22068.4
    6834.19  66449.5  151232  22284.4
    6839.92  66580.2  152434  22515.8
    6845.66  66696.4  153581  22742.9
    6851.4  66837.2  154774  22974.4
    6857.16  67005.5  156059  23232.5
    6863.03  67126.3  157266  23474
    6868.81  67264.7  158471  23709.2
    6874.7  67425.5  159813  23973.8
    6880.5  67564.9  161033  24214
    6886.41  67652.9  162230  24465.7
    6892.33  67791.3  163525  24729.9
    6898.26  67984.3  164929  25006.7
    6904.2  68126.8  166214  25272
    6910.15  68183.8  167346  25508.8
    6916.11  68358.4  168734  25784.2
    6922.09  68439.5  169906  26035.1
    6928.18  68532.1  171112  26292.5
    6934.17  68646.2  172385  26568.4
    6940.28  68812.9  173828  26866.9
    6946.3  68868.1  174966  27113.9
    6952.43  69006.8  176307  27399.4
    6958.57  69130  177684  27693.5
    6964.62  69287.8  179078  27977.1
    6970.78  69400.1  180396  28256.2
    6976.96  69527.9  181755  28553.8
    6983.15  69641.2  183103  28835
    6989.35  69803.1  184534  29124.7
    6995.66  69888.5  185844  29408.9
    7001.88  69989.4  187180  29688.7
    7008.12  70096.9  188505  29969
    7014.47  70256.8  190018  30306.8
    7020.72  70330.3  191225  30568.1
    7027.1  70413.3  192545  30860
    7033.38  70484.9  193773  31141.4
    7039.77  70636  195294  31458.3
    7046.18  70697.6  196534  31736.8
    7052.6  70793.7  197839  32032.8
    7059.04  70897.3  199313  32356.3
    7065.48  70972.5  200597  32648.3
    7071.94  71039.2  201895  32951.9
    7078.41  71168.5  203398  33280
    7084.9  71166.2  204522  33538.7
    7091.39  71215.5  205823  33841.9
    7097.9  71309.3  207211  34161.6
    7104.53  71361.6  208504  34463.8
    7111.06  71348.5  209607  34725.5