File: data/Cr/na2cro4_100K_002.xdi
# XDI/1.0
# Column.1: energy eV
# Column.2: i0
# Column.3: itrans
# Column.4: irefer
# Beamline.name: SSRL 2-3
# Beamline.notes: vert slits = 0.6mm
# Detector.I0: N2 15cm
# Detector.I1: N2 30cm
# Detector.I2: N2 15cm
# Element.edge: K
# Element.symbol: Cr
# Mono.d_spacing: 3.13550
# Mono.name: Si(111)
# Mono.notes: unfocused, detuned 75%, clockwise at E=5990eV
# Sample.formula: Na2CrO4
# Sample.name: Na2CrO4
# Sample.prep: powder on tape (5 layers)
# Sample.reference: Cr foil
# Sample.temperature: 100K
# Scan.start_time: 1997-04-18 19:10:23
# ///
#    Note: mono d_spacing is nominal!
#     exafs to K16
#     396  E XMU XMUR I0
#-------------
#   energy   i0   itrans  irefer
    5759.99  218057  15076.7  1927.3
    5769.98  217797  15330.7  1970.3
    5780.01  217616  15599.7  2018.3
    5790  217216  15847.7  2063.3
    5799.97  217200  16134.7  2111.3
    5810.03  217126  16418.7  2162.3
    5820  216988  16698.7  2213.3
    5830  216755  16974.7  2264.3
    5839.97  216509  17252.7  2315.3
    5849.98  216261  17527.7  2366.3
    5860.02  215913  17804.7  2418.3
    5870.02  215505  18076.7  2468.3
    5879.99  215264  18363.7  2525.3
    5890  215074  18665.7  2579.3
    5899.97  214910  18957.7  2637.3
    5909.98  214583  19253.7  2692.3
    5920.02  214193  19534.7  2747.3
    5930.03  213707  19806.7  2802.3
    5939.99  213555  20106.7  2860.3
    5950  213410  20416.7  2919.3
    5959.97  212911  20695.7  2975.3
    5969.97  212420  20959.7  3027.3
    5970.49  212293  20959.7  3029.3
    5971.01  211880  20939.7  3026.3
    5971.53  211000  20866.7  3017.3
    5971.97  209642  20743.7  2998.3
    5972.49  208807  20680.7  2988.3
    5973.01  210001  20817.7  3008.3
    5973.53  211954  21022.7  3042.3
    5973.98  212415  21076.7  3052.3
    5974.5  212634  21123.7  3057.3
    5975.02  212790  21146.7  3062.3
    5975.46  212750  21159.7  3062.3
    5975.98  212559  21156.7  3063.3
    5976.51  212750  21192.7  3070.3
    5977.03  212807  21216.7  3072.3
    5977.47  212657  21211.7  3072.3
    5977.99  212905  21248.7  3079.3
    5978.52  212808  21259.7  3082.3
    5979.04  212731  21266.7  3082.3
    5979.48  212661  21269.7  3081.3
    5980.01  212805  21303.7  3089.3
    5980.53  212924  21331.7  3094.3
    5980.97  212664  21316.7  3089.3
    5981.49  212814  21346.7  3094.3
    5982.02  213063  21388.7  3100.3
    5982.46  212781  21370.7  3096.3
    5982.99  212870  21393.7  3100.3
    5983.51  213061  21426.7  3108.3
    5984.03  213016  21442.7  3107.3
    5984.48  212883  21439.7  3106.3
    5985  212816  21441.7  3104.3
    5985.52  211437  21308.7  3085.3
    5985.97  208434  21024.7  3045.3
    5986.49  200126  20196.7  2921.3
    5987.02  186950  18876.7  2727.3
    5987.46  184523  18633.7  2691.3
    5987.99  194516  19656.7  2835.3
    5988.51  202064  20422.7  2932.3
    5989.03  206408  20865.7  2980.3
    5989.48  208040  21027.7  2976.3
    5990  209131  21134.7  2930.3
    5990.53  210046  21193.7  2852.3
    5990.98  210110  21172.7  2780.3
    5991.5  210405  21132.7  2713.3
    5992.02  210586  21038.7  2648.3
    5992.47  210646  20894.7  2596.3
    5992.99  210710  20588.7  2521.3
    5993.52  210527  19879.7  2403.3
    5993.97  211010  18858.7  2258.3
    5994.49  210964  17549.7  2078.3
    5995.02  211007  17541.7  2061.3
    5995.47  211237  18636.7  2182.3
    5995.99  211124  19923.7  2327.3
    5996.51  211017  20590.7  2406.3
    5996.96  211030  20839.7  2435.3
    5997.49  211233  21009.7  2450.3
    5998.01  211067  21049.7  2438.3
    5998.54  210705  20987.7  2400.3
    5998.99  210888  20956.7  2361.3
    5999.51  210947  20857.7  2302.3
    6000.04  210353  20675.7  2232.3
    6000.49  209897  20503.7  2175.3
    6001.01  208833  20250.7  2103.3
    6001.46  207490  20005.7  2045.3
    6001.99  206760  19820.7  1993.3
    6002.51  208272  19832.7  1965.3
    6002.96  209792  19852.7  1946.3
    6003.49  210333  19737.7  1915.3
    6004.02  210437  19550.7  1875.3
    6004.47  210457  19375.7  1843.3
    6004.99  210589  19153.7  1804.3
    6005.52  210443  18881.7  1761.3
    6005.97  210626  18676.7  1727.3
    6006.5  210842  18410.7  1690.3
    6007.02  210799  18105.7  1644.3
    6007.47  210329  17799.7  1603.3
    6008  210720  17513.7  1561.3
    6008.53  210732  17207.7  1522.3
    6008.98  210630  16964.7  1486.3
    6009.5  210933  16744.7  1451.3
    6010.03  210651  16520.7  1417.3
    6010.94  210847  16246.5  1382.06
    6011.84  210781  16056.7  1377.36
    6012.82  210919  15989.5  1403.18
    6013.8  210742  15970.8  1438.53
    6014.78  210929  15993.6  1469.41
    6015.76  210884  16009  1481.83
    6016.81  210974  16021.8  1482.76
    6017.8  210745  15997.1  1469.23
    6018.93  211182  16015  1452.23
    6019.99  211441  16010.4  1435.76
    6021.12  211526  15988.3  1427.82
    6022.18  211660  15969.7  1426.4
    6023.39  211858  15966.6  1437.52
    6024.52  212246  15979  1448.16
    6025.73  212476  15995  1452.34
    6026.87  212824  16040.4  1447.04
    6028.16  213116  16116.4  1437.27
    6029.37  213624  16220.9  1437.03
    6030.58  213746  16307.9  1437.32
    6031.87  214140  16416.4  1441.14
    6033.16  214554  16524.4  1445.49
    6034.53  214973  16620  1454.37
    6035.82  215343  16698  1459.77
    6037.19  215474  16749.6  1462.71
    6038.56  215973  16828.7  1462.18
    6040  216662  16924.3  1463.17
    6041.37  216728  16989.4  1467.69
    6042.82  217268  17131  1482.75
    6044.26  217751  17258.2  1502.33
    6045.71  218555  17414.8  1523.44
    6047.24  218766  17548  1539.08
    6048.76  219200  17672.7  1559.25
    6050.29  219859  17770.8  1578.95
    6051.82  220619  17916.6  1608.18
    6053.42  221022  18071.8  1640.94
    6054.95  221469  18205.5  1673.22
    6056.56  222173  18365.8  1705.04
    6058.24  223161  18560.5  1736.39
    6059.85  223627  18678.8  1760.26
    6061.53  223426  18741.6  1774.66
    6063.22  224061  18867.9  1786.6
    6064.91  224489  18965.7  1791.06
    6066.68  225208  19082  1786.05
    6068.36  225868  19189.9  1777.57
    6070.13  226523  19298.2  1762.62
    6071.9  227478  19419.1  1753.2
    6073.75  228315  19525.5  1757.31
    6075.52  229113  19632.4  1777.94
    6077.37  229935  19740.8  1809.11
    6079.22  230674  19850.7  1843.81
    6081.15  231626  19976.1  1885.03
    6083  232594  20101.1  1924.79
    6084.93  233502  20234.6  1961.07
    6086.87  234314  20367.5  1983.88
    6088.8  235014  20497  1982.22
    6090.81  236113  20668  1966.09
    6092.83  237148  20841.6  1940.49
    6094.84  238279  21004.6  1912.42
    6096.86  239143  21158.1  1886.88
    6098.88  240114  21314.2  1869.87
    6100.98  241070  21461.8  1866.39
    6103.07  242452  21634.8  1889.43
    6105.18  243530  21775.4  1930.01
    6107.28  244582  21905.5  1983.11
    6109.46  245518  22018.2  2043.75
    6111.64  246648  22167.3  2101.91
    6113.83  247827  22315  2151.6
    6116.01  248977  22471.2  2187.82
    6118.28  250160  22630.8  2208.57
    6120.47  251411  22815  2224.85
    6122.74  252543  22980.7  2232.66
    6125.01  253444  23131.9  2243
    6127.36  254895  23346.7  2274.87
    6129.64  256063  23537.9  2307.26
    6131.99  257148  23733.7  2343.19
    6134.35  258612  23957  2378.64
    6136.79  260191  24205.8  2410.63
    6139.15  261284  24406.1  2429.14
    6141.59  262556  24645.9  2448.19
    6144.04  263997  24897.2  2470.76
    6146.48  265368  25143.1  2485.86
    6148.93  266872  25396.4  2495.49
    6151.46  268269  25644.3  2507.65
    6153.99  269915  25919.7  2530.34
    6156.53  271465  26190.6  2550.55
    6159.06  273060  26464  2564.3
    6161.6  274193  26696.9  2560.58
    6164.22  275536  26957.4  2557.38
    6166.84  277106  27246.3  2574.72
    6169.47  278638  27535.8  2613.58
    6172.1  280246  27825.8  2674.98
    6174.81  281695  28111.3  2740.9
    6177.52  282997  28377.3  2807.35
    6180.23  284716  28695.8  2867.33
    6182.95  286352  29000.8  2923.84
    6185.67  287629  29262.4  2968.88
    6188.47  289140  29571.4  3008.45
    6191.27  290725  29870  3049.54
    6194.08  292344  30176.1  3089.17
    6196.89  294051  30483.7  3133.33
    6199.7  295566  30771.8  3171.01
    6202.6  297110  31078.5  3215.23
    6205.5  298955  31392.6  3259.97
    6208.4  300604  31705.2  3308.24
    6211.3  302354  32017.4  3364.05
    6214.21  304136  32337.1  3411.37
    6217.2  306005  32657.3  3456.23
    6220.2  307501  32944  3482.63
    6223.19  309252  33265.2  3501.54
    6226.19  311007  33577  3515.99
    6229.2  312761  33902.2  3529.97
    6232.28  314666  34256  3541.48
    6235.38  314059  34330.3  3524.51
    6238.47  318972  35006.1  3574.08
    6241.56  311864  34369.4  3498.17
    6244.75  320251  35443.2  3607.79
    6247.85  323150  35920.5  3668.95
    6251.04  325374  36314.4  3745.63
    6254.23  327604  36740.7  3838.84
    6257.43  329195  37094.6  3931.58
    6260.71  331311  37502  4016.85
    6263.91  333253  37910.9  4080.65
    6267.2  335349  38333.3  4135.97
    6270.49  337235  38724.3  4185.83
    6273.79  339201  39139.7  4239.22
    6277.17  341430  39601.7  4304.13
    6280.48  343393  40012.1  4360.58
    6283.86  345273  40447.1  4416.55
    6287.26  347074  40867.6  4463.05
    6290.65  348989  41296.6  4517.09
    6294.06  351199  41769.2  4580.65
    6297.54  353202  42220.2  4648.74
    6300.95  355142  42676.7  4720.35
    6304.45  356947  43116.8  4787.51
    6307.95  359227  43619.4  4853.18
    6311.54  361158  44075.5  4908.39
    6315.05  363361  44589.1  4967.13
    6318.56  365668  45094.2  5014.39
    6322.16  367603  45568.8  5059.19
    6325.77  369381  46025  5099.51
    6329.38  371413  46510.6  5155.36
    6333.07  373494  46999.8  5211.75
    6336.69  375555  47513.5  5272.66
    6340.4  377819  48042.7  5344.1
    6344.11  379922  48557.5  5421.07
    6347.83  382021  49055.7  5498.57
    6351.55  384066  49562.4  5579.6
    6355.27  386118  50073.7  5661.16
    6359.09  388155  50581.4  5745.25
    6362.82  390627  51140.7  5839.86
    6366.65  392794  51680.5  5941.01
    6370.47  394733  52188.8  6025.68
    6374.31  397114  52751.6  6109.88
    6378.23  399130  53284  6184.62
    6382.07  401517  53871.8  6260.88
    6386.01  403454  54397.2  6333.68
    6389.95  405703  54987.1  6418.99
    6393.89  407870  55567.4  6502.84
    6397.84  410047  56135.4  6584.22
    6401.88  412448  56761.8  6665.13
    6405.84  414570  57354.7  6743.57
    6409.89  416862  57965.2  6831.54
    6413.95  419320  58610.1  6923.03
    6418.01  421404  59221.6  7019.05
    6422.08  423667  59871.6  7117.61
    6426.15  425866  60499.1  7205.69
    6430.32  428343  61174.1  7295.31
    6434.4  430341  61802.6  7375.44
    6438.58  432526  62459.7  7453.12
    6442.76  434875  63136.2  7548.32
    6446.95  436962  63792.3  7646.04
    6451.23  439297  64485.9  7761.3
    6455.43  441279  65136.9  7871.09
    6459.72  443734  65870.6  7994.42
    6463.93  446004  66574.7  8103.26
    6468.24  448420  67322.3  8223.63
    6472.55  450712  68043.5  8327.54
    6476.95  453081  68782.2  8446.98
    6481.28  455320  69510.3  8562.93
    6485.61  457526  70239  8680.43
    6490.03  460044  71044.3  8803.45
    6494.46  462384  71771.9  8914.99
    6498.9  464572  72507.2  9016.08
    6503.34  466266  73197.9  9121.69
    6507.79  468660  73975.2  9239.83
    6512.34  471087  74796  9369.49
    6516.8  473072  75516.2  9495.69
    6521.35  475291  76293.1  9621.42
    6525.92  477838  77134.3  9755.67
    6530.49  479877  77896.2  9880.47
    6535.07  482532  78759.5  10015.8
    6539.65  484869  79568.4  10142.6
    6544.25  486550  80283.8  10250
    6548.94  488556  81062.6  10368.9
    6553.54  490397  81806  10482.3
    6558.24  492628  82641.9  10613.3
    6562.95  494588  83430.4  10739.8
    6567.67  497218  84342.3  10885.8
    6572.4  499565  85209.8  11025.3
    6577.22  501911  86099.7  11174.4
    6581.96  504494  87004.2  11329
    6586.79  506481  87853.2  11471.2
    6591.55  508736  88708.7  11620.8
    6596.4  510929  89582.7  11766
    6601.26  512967  90458.3  11914.7
    6606.12  514736  91278.3  12049
    6611.09  517607  92282.9  12210.8
    6615.97  519136  93071.9  12344.1
    6620.95  521407  93994.5  12500.9
    6625.85  523860  94949.6  12649.3
    6630.85  526478  95950.2  12819.2
    6635.85  528018  96778.3  12963.6
    6640.87  530324  97748  13130.6
    6645.89  532712  98740.1  13304
    6650.92  534554  99637.8  13461.1
    6655.96  536402  100535  13614.6
    6661.1  538684  101543  13796.7
    6666.15  540801  102507  13959.3
    6671.31  543015  103497  14130.4
    6676.47  544908  104437  14293.1
    6681.64  546709  105366  14459.3
    6686.82  548780  106360  14629
    6692.01  549466  107086  14765.2
    6697.3  549208  107658  14876
    6702.51  525109  103669  14358.3
    6707.72  570343  113071  15691.1
    6713.04  565435  112701  15679.5
    6718.37  565578  113375  15816.4
    6723.7  566657  114219  15965.8
    6729.05  567368  115016  16118.8
    6734.4  567705  115738  16265.3
    6739.77  574998  117893  16613.3
    6745.14  573341  118204  16700.8
    6750.61  560587  116086  16447.9
    6756  572468  119373  16966.5
    6761.5  569057  119529  17026.6
    6766.91  582193  122848  17551.3
    6772.42  570474  121100  17345.5
    6777.94  587798  125390  18004.2
    6783.48  588520  126290  18181.4
    6789.02  589838  127325  18388.2
    6794.57  589390  127952  18532.5
    6800.23  586985  128156  18613.3
    6805.8  556143  122148  17784.7
    6811.48  606960  134043  19565.6
    6817.07  604451  134277  19648
    6822.77  604648  135087  19826.9
    6828.47  606192  136219  20042.4
    6834.19  607805  137367  20258.4
    6839.92  609339  138482  20476
    6845.66  611133  139699  20703
    6851.4  612554  140818  20920.6
    6857.16  613986  141961  21143.8
    6863.03  615501  143120  21366.4
    6868.81  617437  144415  21622.6
    6874.7  619239  145644  21871.3
    6880.5  621083  146980  22128.5
    6886.41  622277  148137  22363.3
    6892.33  623889  149354  22605.6
    6898.26  625405  150603  22854.4
    6904.2  627807  152070  23136.8
    6910.15  629766  153407  23401.7
    6916.11  630309  154474  23627.1
    6922.09  631186  155536  23848
    6928.18  632823  156863  24120.5
    6934.17  634900  158297  24410.5
    6940.28  636617  159651  24692.1
    6946.3  637271  160699  24925.1
    6952.43  638979  162061  25207.7
    6958.57  640131  163304  25472.8
    6964.62  641838  164659  25751.5
    6970.78  644901  166387  26081.7
    6976.96  645545  167522  26321.4
    6983.15  646764  168801  26599.6
    6989.35  649097  170380  26910.4
    6995.66  649638  171479  27155.7
    7001.88  651838  173034  27482.5
    7008.12  653872  174547  27789.9
    7014.47  655001  175857  28063.7
    7020.72  656246  177157  28346.2
    7027.1  657161  178382  28609.1
    7033.38  658844  179850  28907.5
    7039.77  660269  181233  29215.6
    7046.18  661527  182592  29515.1
    7052.6  663000  184023  29822.2
    7059.04  663958  185304  30113.7
    7065.48  665233  186701  30427.9
    7071.94  665872  187925  30698.5
    7078.41  667403  189386  31019.7
    7084.9  667737  190548  31289.4
    7091.39  669493  192096  31626.6
    7097.9  670468  193440  31935.4
    7104.53  671063  194708  32227.7
    7111.06  672387  196160  32543.5