File: data/Cr/na2cro4_100K_001.xdi
# XDI/1.0
# Column.1: energy eV
# Column.2: i0
# Column.3: itrans
# Column.4: irefer
# Beamline.name: SSRL 2-3
# Beamline.notes: vert slits = 0.6mm
# Detector.I0: N2 15cm
# Detector.I1: N2 30cm
# Detector.I2: N2 15cm
# Element.edge: K
# Element.symbol: Cr
# Mono.d_spacing: 3.13550
# Mono.name: Si(111)
# Mono.notes: unfocused, detuned 75%, clockwise at E=5990eV
# Sample.formula: Na2CrO4
# Sample.name: Na2CrO4
# Sample.prep: powder on tape (5 layers)
# Sample.reference: Cr foil
# Sample.temperature: 100K
# Scan.start_time: 1997-04-18 19:10:23
# ///
#    Note: mono d_spacing is nominal!
#     exafs to K16
#     396  E XMU XMUR I0
#-------------
#   energy   i0   itrans  irefer
    5759.99  217667  15041.7  1917.3
    5769.98  217298  15288.7  1960.3
    5780.01  217085  15548.7  2006.3
    5790  216857  15812.7  2054.3
    5799.97  216638  16077.7  2103.3
    5810.03  216186  16336.7  2148.3
    5820  216216  16626.7  2201.3
    5830  216027  16912.7  2250.3
    5839.97  216074  17208.7  2304.3
    5849.98  215806  17483.7  2355.3
    5860.02  215653  17775.7  2411.3
    5870.02  215460  18069.7  2465.3
    5879.99  215145  18343.7  2518.3
    5890  214980  18648.7  2574.3
    5899.97  214534  18925.7  2629.3
    5909.98  214471  19242.7  2689.3
    5920.02  214081  19517.7  2744.3
    5930.03  213870  19818.7  2800.3
    5939.99  213240  20083.7  2854.3
    5950  212896  20367.7  2908.3
    5959.97  212696  20665.7  2965.3
    5969.97  212059  20917.7  3015.3
    5970.49  211984  20931.7  3018.3
    5971.01  211530  20902.7  3016.3
    5971.53  210352  20796.7  3004.3
    5971.97  209065  20691.7  2986.3
    5972.49  208416  20632.7  2980.3
    5973.01  209674  20773.7  2999.3
    5973.53  211176  20936.7  3026.3
    5973.98  211952  21027.7  3036.3
    5974.5  212090  21054.7  3044.3
    5975.02  212345  21097.7  3052.3
    5975.46  212137  21098.7  3052.3
    5975.98  212008  21102.7  3053.3
    5976.51  212171  21134.7  3057.3
    5977.03  212208  21153.7  3062.3
    5977.47  212168  21155.7  3063.3
    5977.99  212168  21168.7  3065.3
    5978.52  212105  21178.7  3069.3
    5979.04  212347  21214.7  3072.3
    5979.48  212345  21236.7  3077.3
    5980.01  212243  21234.7  3076.3
    5980.53  212128  21238.7  3076.3
    5980.97  212369  21279.7  3081.3
    5981.49  212472  21310.7  3087.3
    5982.02  212374  21307.7  3088.3
    5982.46  212292  21315.7  3088.3
    5982.99  212496  21348.7  3092.3
    5983.51  212664  21382.7  3097.3
    5984.03  212612  21389.7  3097.3
    5984.48  212445  21377.7  3096.3
    5985  212499  21402.7  3099.3
    5985.52  211041  21274.7  3079.3
    5985.97  207964  20970.7  3034.3
    5986.49  199742  20144.7  2913.3
    5987.02  186239  18790.7  2717.3
    5987.46  184056  18582.7  2682.3
    5987.99  194057  19602.7  2823.3
    5988.51  201517  20363.7  2922.3
    5989.03  205524  20774.7  2966.3
    5989.48  207606  20978.7  2968.3
    5990  208937  21104.7  2926.3
    5990.53  209323  21120.7  2841.3
    5990.98  209477  21101.7  2770.3
    5991.5  209849  21070.7  2704.3
    5992.02  210148  20993.7  2645.3
    5992.47  210205  20848.7  2588.3
    5992.99  210146  20530.7  2512.3
    5993.52  210239  19842.7  2395.3
    5993.97  210339  18781.7  2243.3
    5994.49  210342  17477.7  2067.3
    5995.02  210300  17488.7  2053.3
    5995.47  210190  18564.7  2172.3
    5995.99  210341  19851.7  2317.3
    5996.51  210420  20539.7  2397.3
    5996.96  210264  20772.7  2425.3
    5997.49  210213  20902.7  2436.3
    5998.01  210227  20959.7  2428.3
    5998.54  210466  20953.7  2393.3
    5998.99  210359  20894.7  2354.3
    5999.51  210230  20779.7  2290.3
    6000.04  209915  20621.7  2225.3
    6000.49  209389  20445.7  2164.3
    6001.01  208379  20195.7  2094.3
    6001.46  207100  19957.7  2037.3
    6001.99  206438  19775.7  1984.3
    6002.51  207966  19793.7  1957.3
    6002.96  209178  19783.7  1934.3
    6003.49  209853  19678.7  1903.3
    6004.02  209895  19491.7  1865.3
    6004.47  209892  19305.7  1830.3
    6004.99  209851  19075.7  1791.3
    6005.52  210004  18839.7  1750.3
    6005.97  209932  18605.7  1715.3
    6006.5  209871  18314.7  1671.3
    6007.02  209685  17994.7  1627.3
    6007.47  209792  17741.7  1590.3
    6008  209874  17426.7  1546.3
    6008.53  209759  17110.7  1506.3
    6008.98  209647  16867.7  1471.3
    6009.5  209722  16633.7  1436.3
    6010.03  209774  16433.7  1407.3
    6010.94  209675  16138.4  1371.06
    6011.84  209603  15955.7  1366.36
    6012.82  209607  15884.5  1394.18
    6013.8  209707  15879.8  1429.53
    6014.78  209873  15902.6  1459.41
    6015.76  209952  15930.9  1472.83
    6016.81  210092  15949.8  1472.77
    6017.8  209943  15934.1  1461.24
    6018.93  209995  15921  1440.23
    6019.99  210419  15929.4  1425.76
    6021.12  210373  15902.3  1417.82
    6022.18  210390  15873.7  1418.4
    6023.39  210884  15881.6  1426.52
    6024.52  210876  15868  1434.16
    6025.73  211299  15900  1438.33
    6026.87  211622  15944.4  1435.04
    6028.16  211763  16009.4  1425.27
    6029.37  211883  16087.9  1420.03
    6030.58  212263  16188.9  1421.32
    6031.87  212505  16287.4  1425.14
    6033.16  213050  16402.4  1431.49
    6034.53  213418  16495  1440.37
    6035.82  213507  16545  1443.77
    6037.19  214154  16630.6  1448.71
    6038.56  214651  16713.7  1449.18
    6040  215253  16809.3  1451.17
    6041.37  215674  16903.4  1455.7
    6042.82  215978  17023  1470.75
    6044.26  216459  17151.2  1487.33
    6045.71  216886  17273.8  1506.44
    6047.24  217450  17437  1525.08
    6048.76  218081  17572.7  1544.25
    6050.29  218650  17666.9  1563.95
    6051.82  219172  17790.6  1592.18
    6053.42  219728  17949.8  1623.94
    6054.95  220152  18091.5  1656.23
    6056.56  220960  18254.8  1689.04
    6058.24  221627  18410.5  1717.39
    6059.85  222206  18542.8  1738.26
    6061.53  222318  18635.6  1755.66
    6063.22  222533  18722.9  1765.6
    6064.91  223185  18843.7  1772.06
    6066.68  223994  18971  1767.05
    6068.36  224853  19096.9  1762.57
    6070.13  225726  19218.2  1750.62
    6071.9  226515  19326.1  1741.2
    6073.75  227274  19426.5  1743.31
    6075.52  228144  19538.4  1761.95
    6077.37  228749  19626.8  1794.11
    6079.22  229730  19758.7  1829.81
    6081.15  230438  19858.1  1868.03
    6083  231571  20000.1  1909.79
    6084.93  232490  20136.6  1945.07
    6086.87  233738  20305.5  1970.88
    6088.8  234532  20435  1973.22
    6090.81  235354  20587  1953.1
    6092.83  236031  20726.5  1924.49
    6094.84  236544  20850.6  1893.42
    6096.86  237703  21019.1  1869.88
    6098.88  238937  21194.2  1852.87
    6100.98  240139  21361.8  1854.39
    6103.07  241599  21539.9  1876.43
    6105.18  242578  21676.4  1917.01
    6107.28  243743  21817.5  1972.11
    6109.46  244785  21942.2  2034.74
    6111.64  245979  22086.3  2093.91
    6113.83  247198  22247  2142.6
    6116.01  248462  22417.1  2180.82
    6118.28  249325  22553.8  2199.57
    6120.47  250360  22714  2211.85
    6122.74  251525  22877.7  2220.66
    6125.01  252881  23074  2236
    6127.36  254132  23268.7  2261.87
    6129.64  255198  23441.9  2296.26
    6131.99  256484  23662.7  2333.19
    6134.35  257660  23866  2366.64
    6136.79  258994  24097.8  2394.63
    6139.15  260111  24302.1  2413.14
    6141.59  261730  24556.9  2435.18
    6144.04  262865  24777.2  2454.76
    6146.48  264576  25054.1  2473.86
    6148.93  265801  25288.4  2481.49
    6151.46  267067  25518.3  2490.65
    6153.99  268435  25767.7  2508.33
    6156.53  269969  26038.6  2531.55
    6159.06  271408  26300  2541.3
    6161.6  272833  26555.9  2545.58
    6164.22  274085  26806.4  2542.38
    6166.84  275643  27090.3  2554.72
    6169.47  277468  27403.8  2599.58
    6172.1  278985  27696.8  2658.97
    6174.81  280400  27972.2  2723.89
    6177.52  281809  28242.3  2786.35
    6180.23  283426  28550.8  2849.33
    6182.95  284968  28847.8  2904.84
    6185.67  286605  29156.4  2954.88
    6188.47  288049  29445.4  2993.45
    6191.27  289932  29774  3034.54
    6194.08  291440  30068.1  3076.17
    6196.89  293095  30385.7  3119.33
    6199.7  294574  30664.8  3159.01
    6202.6  296676  31017.5  3206.23
    6205.5  298250  31304.6  3245.97
    6208.4  299741  31584.2  3293.24
    6211.3  301675  31913.4  3350.05
    6214.21  303386  32221.1  3400.37
    6217.2  304694  32492.3  3435.23
    6220.2  305964  32757  3458.63
    6223.19  308005  33110.2  3482.54
    6226.19  309728  33425  3498.99
    6229.2  311701  33765.2  3514.97
    6232.28  313705  34122  3526.48
    6235.38  313058  34190.3  3511.51
    6238.47  317935  34868.1  3557.08
    6241.56  310943  34236.4  3483.17
    6244.75  319588  35348.2  3591.79
    6247.85  322715  35851.5  3656.95
    6251.04  324649  36233.4  3731.63
    6254.23  326414  36589.7  3820.84
    6257.43  328652  36999.6  3921.58
    6260.71  330319  37371  3998.85
    6263.91  331666  37688.9  4055.65
    6267.2  333421  38080.3  4107.97
    6270.49  335452  38500.3  4157.83
    6273.79  337332  38912.7  4210.22
    6277.17  339192  39318.6  4269.13
    6280.48  341717  39813.1  4334.58
    6283.86  343641  40236.1  4391.55
    6287.26  346030  40725.6  4448.05
    6290.65  347967  41148.6  4501.08
    6294.06  349849  41598.2  4557.65
    6297.54  352033  42055.2  4628.74
    6300.95  353831  42501.8  4698.36
    6304.45  355828  42966.8  4764.51
    6307.95  357461  43381.4  4822.18
    6311.54  359910  43907.5  4890.39
    6315.05  361788  44361.1  4938.13
    6318.56  363638  44816.2  4981.39
    6322.16  365626  45298.8  5023.19
    6325.77  368021  45829  5073.51
    6329.38  370175  46336.6  5128.37
    6333.07  372032  46806.8  5179.75
    6336.69  374325  47326.5  5242.66
    6340.4  376568  47849.7  5313.11
    6344.11  378736  48372.4  5394.08
    6347.83  381157  48932.7  5479.57
    6351.55  383241  49441.4  5558.6
    6355.27  385259  49933.6  5638.16
    6359.09  387496  50480.4  5722.24
    6362.82  389652  50985.7  5816.86
    6366.65  391385  51467.5  5908.01
    6370.47  393621  52025.8  5995.68
    6374.31  395942  52577.7  6082.89
    6378.23  397954  53119  6155.62
    6382.07  399937  53644.9  6221.88
    6386.01  401844  54167.2  6292.67
    6389.95  404671  54811.1  6382.99
    6393.89  406197  55300.5  6457.84
    6397.84  409001  55978.4  6550.22
    6401.88  410611  56486.8  6622.13
    6405.84  413647  57185.7  6716.57
    6409.89  415283  57720.2  6791.53
    6413.95  417679  58356.1  6884.03
    6418.01  419674  58958.6  6971.05
    6422.08  422102  59617.6  7074.61
    6426.15  424530  60276.1  7165.69
    6430.32  426678  60893.1  7249.31
    6434.4  429021  61566.6  7332.44
    6438.58  431158  62216.7  7412.11
    6442.76  433119  62849.2  7497.32
    6446.95  435233  63497.3  7594.05
    6451.23  437389  64177.9  7709.31
    6455.43  439695  64871  7823.09
    6459.72  442070  65582.6  7945.41
    6463.93  444313  66266.7  8050.25
    6468.24  446884  67050.3  8174.63
    6472.55  449266  67791.5  8281.54
    6476.95  451166  68453.2  8390.98
    6481.28  453404  69190.4  8505.94
    6485.61  455831  69952  8627.43
    6490.03  458370  70722.2  8747.45
    6494.46  461007  71535.9  8864
    6498.9  462933  72240.2  8966.08
    6503.34  465118  72987.9  9079.69
    6507.79  467605  73794.2  9199.83
    6512.34  470067  74594.9  9329.49
    6516.8  472438  75378.2  9461.69
    6521.35  474997  76198  9599.41
    6525.92  476971  76953.4  9724.68
    6530.49  479624  77799.2  9861.46
    6535.07  481866  78586.6  9988.77
    6539.65  483593  79314.4  10100.6
    6544.25  485100  80014.7  10206
    6548.94  486127  80628.6  10303.9
    6553.54  488335  81441.1  10424.3
    6558.24  490742  82296.9  10555.3
    6562.95  492526  83031.4  10678.8
    6567.67  494810  83888.3  10820.8
    6572.4  496953  84709.8  10954.3
    6577.22  500247  85748.7  11122.4
    6581.96  502895  86688.2  11280
    6586.79  505114  87554.2  11424.1
    6591.55  507491  88452.7  11578.8
    6596.4  509119  89240.7  11713
    6601.26  511365  90112.2  11861.7
    6606.12  514034  91081.2  12017
    6611.09  516270  91975.8  12165.8
    6615.97  518599  92927.9  12320.1
    6620.95  520769  93840.5  12473.9
    6625.85  522032  94568.6  12598.3
    6630.85  524031  95477.2  12755.2
    6635.85  525957  96368.4  12898.6
    6640.87  528655  97436.9  13076.6
    6645.89  530824  98361.1  13249
    6650.92  532579  99231.8  13402.1
    6655.96  534630  100154  13562.6
    6661.1  536359  101053  13715.7
    6666.15  539355  102188  13914.3
    6671.31  541684  103213  14085.4
    6676.47  542994  104028  14235.1
    6681.64  545124  105021  14400.3
    6686.82  547072  105995  14567
    6692.01  549226  106994  14747.2
    6697.3  547871  107357  14831
    6702.51  523930  103408  14316.3
    6707.72  568370  112618  15623.2
    6713.04  563851  112344  15621.5
    6718.37  563838  112971  15747.4
    6723.7  564896  113820  15906.8
    6729.05  565901  114674  16064.8
    6734.4  566326  115405  16225.3
    6739.77  573370  117522  16557.3
    6745.14  571182  117740  16631.8
    6750.61  557887  115470  16357.9
    6756  570475  118932  16890.5
    6761.5  566722  119016  16946.6
    6766.91  580713  122465  17484.3
    6772.42  569344  120831  17291.4
    6777.94  585008  124801  17916.2
    6783.48  585737  125642  18086.4
    6789.02  586917  126636  18281.2
    6794.57  587240  127416  18440.5
    6800.23  585093  127689  18533.3
    6805.8  554653  121779  17723.7
    6811.48  605069  133568  19492.6
    6817.07  602505  133781  19573
    6822.77  602966  134658  19756.9
    6828.47  604270  135731  19969.4
    6834.19  605170  136711  20161.4
    6839.92  607186  137965  20394
    6845.66  608399  139022  20599
    6851.4  610053  140200  20821.6
    6857.16  611795  141419  21056.7
    6863.03  613072  142524  21288.4
    6868.81  615853  144028  21569.6
    6874.7  616998  145146  21792.3
    6880.5  619262  146481  22056.5
    6886.41  620673  147685  22295.3
    6892.33  621569  148769  22518.6
    6898.26  624278  150249  22808.4
    6904.2  625771  151508  23049.8
    6910.15  626904  152661  23297.7
    6916.11  628883  154032  23566.1
    6922.09  630060  155189  23805
    6928.18  631119  156366  24052.5
    6934.17  632847  157714  24321.5
    6940.28  634886  159171  24609.1
    6946.3  636095  160346  24864.1
    6952.43  637741  161684  25141.7
    6958.57  638671  162842  25381.8
    6964.62  639883  164129  25647.5
    6970.78  641820  165547  25927.7
    6976.96  643520  166905  26212.4
    6983.15  644604  168182  26473.6
    6989.35  646159  169501  26758.4
    6995.66  647268  170778  27024.7
    7001.88  649153  172245  27326.5
    7008.12  650314  173526  27599.9
    7014.47  652055  174961  27898.7
    7020.72  653480  176326  28189.1
    7027.1  654668  177654  28470.1
    7033.38  655818  178925  28753.5
    7039.77  657490  180390  29063.6
    7046.18  658384  181651  29354.1
    7052.6  659810  183056  29655.1
    7059.04  660871  184368  29948.7
    7065.48  662721  185911  30277.9
    7071.94  664135  187331  30588.5
    7078.41  665463  188779  30905.7
    7084.9  666426  190086  31195.4
    7091.39  667465  191453  31495.6
    7097.9  668444  192803  31799.4
    7104.53  669773  194218  32131.7
    7111.06  670383  195494  32422.5