File: data/Cr/na2cro4_rt_003.xdi
# XDI/1.0
# Column.1: energy eV
# Column.2: i0
# Column.3: itrans
# Column.4: irefer
# Beamline.name: SSRL 2-3
# Beamline.notes: vert slits = 0.6mm
# Detector.I0: N2 15cm
# Detector.I1: N2 30cm
# Detector.I2: N2 15cm
# Element.edge: K
# Element.symbol: Cr
# Mono.d_spacing: 3.13550
# Mono.name: Si(111)
# Mono.notes: unfocused, detuned 75%, clockwise at E=5990eV
# Sample.formula: Na2CrO4
# Sample.name: Na2CrO4
# Sample.prep: powder on tape (4 layers)
# Sample.reference: Cr foil
# Sample.temperature: room temp
# Scan.start_time: 1997-04-17 23:39:33
# ///
#    Note: mono d_spacing is nominal!
#     exafs to K16
#     396  E XMU XMUR I0
#-------------
#   energy   i0   itrans  irefer
    5759.99  25043.9  18259.5  2316.7
    5769.98  25033.9  18578.5  2372.7
    5780.01  25013.9  18894.5  2428.7
    5790  24987.9  19216.5  2485.7
    5799.97  24936.9  19511.5  2539.7
    5810.03  24916.9  19850.5  2599.7
    5820  24892.9  20175.5  2657.7
    5830  24846.9  20498.5  2717.7
    5839.97  24800.9  20799.5  2773.7
    5849.98  24765.9  21141.5  2838.7
    5860.02  24720.9  21465.5  2899.7
    5870.02  24691.9  21802.5  2963.7
    5879.99  24660.9  22135.5  3030.7
    5890  24623.9  22473.5  3091.7
    5899.97  24587.9  22827.5  3157.7
    5909.98  24524.9  23141.5  3221.7
    5920.02  24498.9  23488.5  3289.7
    5930.03  24453.9  23819.5  3353.7
    5939.99  24407.9  24155.5  3419.7
    5950  24362.9  24498.5  3487.7
    5959.97  24307.9  24818.5  3548.7
    5969.97  24248.9  25136.5  3611.7
    5970.49  24223.9  25121.5  3610.7
    5971.01  24189.9  25104.5  3610.7
    5971.53  24081.9  25003.5  3599.7
    5971.97  23931.9  24868.5  3580.7
    5972.49  23868.9  24825.5  3576.7
    5973.01  23983.9  24961.5  3596.7
    5973.53  24149.9  25156.5  3621.7
    5973.98  24226.9  25256.5  3637.7
    5974.5  24255.9  25303.5  3644.7
    5975.02  24281.9  25343.5  3650.7
    5975.46  24276.9  25357.5  3653.7
    5975.98  24257.9  25348.5  3656.7
    5976.51  24249.9  25359.5  3658.7
    5977.03  24276.9  25402.5  3661.7
    5977.47  24270.9  25418.5  3667.7
    5977.99  24243.9  25405.5  3664.7
    5978.52  24255.9  25443.5  3671.7
    5979.04  24280.9  25488.5  3679.7
    5979.48  24283.9  25503.5  3682.7
    5980.01  24254.9  25487.5  3680.7
    5980.53  24257.9  25506.5  3682.7
    5980.97  24279.9  25545.5  3688.7
    5981.49  24268.9  25548.5  3690.7
    5982.02  24260.9  25564.5  3693.7
    5982.46  24270.9  25586.5  3696.7
    5982.99  24297.9  25637.5  3703.7
    5983.51  24293.9  25648.5  3702.7
    5984.03  24282.9  25658.5  3703.7
    5984.48  24264.9  25643.5  3700.7
    5985  24242.9  25645.5  3701.7
    5985.52  24086.9  25487.5  3676.7
    5985.97  23785.9  25182.5  3631.7
    5986.49  23006.9  24361.5  3509.7
    5987.02  21509.9  22781.5  3281.7
    5987.46  21005.9  22261.5  3205.7
    5987.99  22066.9  23406.5  3360.7
    5988.51  22960.9  24363.5  3490.7
    5989.03  23412.9  24838.5  3538.7
    5989.48  23639.9  25084.5  3544.7
    5990  23797.9  25225.5  3498.7
    5990.53  23877.9  25273.5  3402.7
    5990.98  23930.9  25279.5  3320.7
    5991.5  23966.9  25229.5  3236.7
    5992.02  23967.9  25085.5  3156.7
    5992.47  23975.9  24899.5  3090.7
    5992.99  24006.9  24521.5  2998.7
    5993.52  23997.9  23626.5  2850.7
    5993.97  23989.9  22218.5  2651.7
    5994.49  23995.9  20337.5  2404.7
    5995.02  24016.9  20056.5  2351.7
    5995.47  24009.9  21422.5  2501.7
    5995.99  23992.9  23257.5  2708.7
    5996.51  23999.9  24321.5  2831.7
    5996.96  24014.9  24715.5  2879.7
    5997.49  23995.9  24911.5  2897.7
    5998.01  23992.9  24994.5  2889.7
    5998.54  23993.9  24978.5  2854.7
    5998.99  23997.9  24914.5  2804.7
    5999.51  23983.9  24778.5  2733.7
    6000.04  23946.9  24572.5  2650.7
    6000.49  23911.9  24361.5  2581.7
    6001.01  23821.9  24056.5  2497.7
    6001.46  23687.9  23766.5  2428.7
    6001.99  23603.9  23533.5  2363.7
    6002.51  23702.9  23469.5  2322.7
    6002.96  23848.9  23463.5  2296.7
    6003.49  23950.9  23372.5  2259.7
    6004.02  23966.9  23150.5  2215.7
    6004.47  23981.9  22936.5  2174.7
    6004.99  23988.9  22673.5  2129.7
    6005.52  23971.9  22337.5  2076.7
    6005.97  23955.9  22027.5  2033.7
    6006.5  23957.9  21656.5  1982.7
    6007.02  23963.9  21255.5  1926.7
    6007.47  23953.9  20893.5  1877.7
    6008  23949.9  20470.5  1819.7
    6008.53  23961.9  20059.5  1765.7
    6008.98  23968.9  19752.5  1724.7
    6009.5  23953.9  19422.5  1679.7
    6010.03  23941.9  19142.5  1637.7
    6010.94  23972.7  18744.3  1588.47
    6011.84  23995  18463.5  1574.76
    6012.82  23979.8  18311.3  1599.58
    6013.8  23982.1  18275.6  1636.93
    6014.78  23999  18264.4  1670.81
    6015.76  24017.4  18290.7  1687.22
    6016.81  24021.3  18287.5  1686.16
    6017.8  24022.7  18256.8  1671.63
    6018.93  24032.7  18209.7  1643.62
    6019.99  24065.2  18203  1628.15
    6021.12  24079.2  18190.9  1617.2
    6022.18  24089.8  18193.3  1621.79
    6023.39  24123.8  18205.1  1634.9
    6024.52  24155.4  18200.5  1643.54
    6025.73  24184.6  18194.4  1644.71
    6026.87  24218.2  18217.8  1640.41
    6028.16  24237.4  18273.8  1628.63
    6029.37  24273.1  18368.2  1624.39
    6030.58  24310.3  18481.1  1624.68
    6031.87  24357.1  18598.6  1626.49
    6033.16  24380.4  18680.6  1628.84
    6034.53  24416.2  18750  1632.71
    6035.82  24470.5  18820  1637.11
    6037.19  24528.4  18878.5  1641.04
    6038.56  24561.8  18921.5  1637.5
    6040  24596.7  18979  1636.49
    6041.37  24611.1  19082.1  1641.01
    6042.82  24686.1  19290.6  1662.05
    6044.26  24765.6  19506.6  1689.63
    6045.71  24805.6  19694.2  1716.73
    6047.24  24843.1  19918.3  1739.37
    6048.76  24905.2  20101.8  1764.53
    6050.29  24978.8  20211.9  1784.22
    6051.82  25057.9  20358.5  1817.44
    6053.42  25105.5  20543.6  1859.19
    6054.95  25144.7  20714.3  1894.47
    6056.56  25216.4  20909.4  1932.28
    6058.24  25305.6  21103  1967.61
    6059.85  25363.4  21255.2  1996.48
    6061.53  25403.6  21389.8  2015.87
    6063.22  25436.4  21511  2029.79
    6064.91  25510.8  21654.7  2036.25
    6066.68  25581.6  21794.9  2032.23
    6068.36  25679  21952.6  2027.74
    6070.13  25755.9  22068.8  2011.78
    6071.9  25846.3  22200.5  1996.34
    6073.75  25922.3  22309.8  1999.44
    6075.52  26010.8  22436.5  2023.07
    6077.37  26106.8  22560.8  2060.22
    6079.22  26213.3  22691.5  2101.91
    6081.15  26308.4  22815.8  2148.12
    6083  26409  22954.6  2191.86
    6084.93  26466.1  23055.9  2226.13
    6086.87  26597.7  23235.7  2254.93
    6088.8  26708.9  23403  2261.26
    6090.81  26822.6  23589.9  2242.12
    6092.83  26933.8  23767.2  2207.5
    6094.84  27049.5  23953.1  2177.42
    6096.86  27131.8  24107.4  2142.86
    6098.88  27223.6  24259.3  2120.84
    6100.98  27361.9  24432.7  2115.34
    6103.07  27483.7  24606.6  2141.37
    6105.18  27615.1  24749  2186.93
    6107.28  27751  24913.9  2248.02
    6109.46  27861.4  25049.3  2315.64
    6111.64  27976.4  25196.2  2381.79
    6113.83  28095.8  25346.7  2439.46
    6116.01  28241.8  25536.6  2477.67
    6118.28  28368.4  25712.1  2506.4
    6120.47  28496.4  25896.1  2517.66
    6122.74  28641  26096.6  2529.46
    6125.01  28779.1  26299.5  2547.78
    6127.36  28921.7  26512.1  2576.63
    6129.64  29051.9  26731.1  2615.01
    6131.99  29178.6  26957.6  2655.92
    6134.35  29333.8  27214.6  2697.35
    6136.79  29461.5  27461.2  2729.31
    6139.15  29612.8  27723.2  2751.81
    6141.59  29735.6  27976.8  2775.83
    6144.04  29895.9  28274.9  2798.39
    6146.48  30058.7  28554.5  2817.47
    6148.93  30209.1  28836.6  2830.08
    6151.46  30355  29116.2  2842.22
    6153.99  30521.4  29418.3  2864.89
    6156.53  30685.3  29723.9  2890.09
    6159.06  30839.8  30014.1  2902.81
    6161.6  30983.8  30300.7  2903.07
    6164.22  31147.3  30622.9  2899.85
    6166.84  31320.3  30947.6  2920.17
    6169.47  31468.9  31252.8  2963.01
    6172.1  31640  31580.5  3031.38
    6174.81  31818.6  31918.7  3104.28
    6177.52  31984.8  32244.4  3177.71
    6180.23  32144.5  32566.6  3247.67
    6182.95  32311.7  32885.3  3311.15
    6185.67  32427.4  33171.6  3360.17
    6188.47  32593.6  33515.3  3402.71
    6191.27  32787.4  33867.6  3448.79
    6194.08  32966.7  34201.4  3492.39
    6196.89  33135.5  34531.7  3540.53
    6199.7  33324.9  34875.5  3587.19
    6202.6  33493.8  35213.8  3632.37
    6205.5  33683.2  35546.6  3679.09
    6208.4  33889.1  35911.9  3737.34
    6211.3  34073.6  36243.8  3797.12
    6214.21  34253.6  36579.1  3855.43
    6217.2  34438.1  36918  3900.26
    6220.2  34634.1  37278.4  3931.62
    6223.19  34801.7  37602.2  3950.52
    6226.19  35022.8  37998.6  3972.94
    6229.2  35220.4  38355.5  3987.89
    6232.28  35434.5  38739  4001.37
    6235.38  35388.2  38847.9  3986.38
    6238.47  35910.4  39587.3  4037.91
    6241.56  35096.1  38854.3  3947.98
    6244.75  36039.4  40063.7  4066.57
    6247.85  36344.1  40574.7  4135.7
    6251.04  36577.4  41028.2  4219.36
    6254.23  36779.2  41432.1  4317.54
    6257.43  37000.6  41886.6  4430.24
    6260.71  37195.5  42311.6  4525.49
    6263.91  37392.9  42723.2  4593.26
    6267.2  37615.8  43214.2  4651.56
    6270.49  37848.2  43692.7  4714.38
    6273.79  38048.2  44136.8  4771.74
    6277.17  38255.7  44601.3  4836.62
    6280.48  38481.8  45086.4  4904.04
    6283.86  38651.3  45525  4963.98
    6287.26  38911.4  46077.1  5027.45
    6290.65  39110  46537.7  5080.45
    6294.06  39357.1  47074.8  5149.98
    6297.54  39565.8  47574.4  5226.04
    6300.95  39782  48082.5  5307.63
    6304.45  39958.7  48560.2  5378.75
    6307.95  40217.9  49123.3  5456.39
    6311.54  40426.7  49644  5523.57
    6315.05  40682  50223.2  5588.27
    6318.56  40896.8  50745.9  5638.5
    6322.16  41129.1  51299.1  5685.26
    6325.77  41358  51856.8  5736.55
    6329.38  41584.4  52401  5795.38
    6333.07  41827.3  52975.7  5859.72
    6336.69  42047.8  53534  5928.6
    6340.4  42297.7  54116.7  6003.01
    6344.11  42534.2  54699  6088.94
    6347.83  42767.3  55253.7  6177.41
    6351.55  42975.8  55804  6269.4
    6355.27  43206.9  56377.8  6355.92
    6359.09  43472.5  57006.1  6458.97
    6362.82  43697.6  57577.9  6562.55
    6366.65  43921.3  58185.2  6671.66
    6370.47  44152.4  58758  6768.3
    6374.31  44417.1  59416.4  6869.47
    6378.23  44656.4  60016.2  6951.17
    6382.07  44867.1  60587.6  7026.39
    6386.01  45110.4  61232.5  7116.14
    6389.95  45353.2  61867.9  7204.43
    6393.89  45576.5  62505.8  7297.24
    6397.84  45850.4  63202.2  7392.58
    6401.88  46079.8  63842.1  7481.45
    6405.84  46275.7  64430.5  7563.85
    6409.89  46569.1  65195.4  7662.78
    6413.95  46808.1  65853.9  7765.23
    6418.01  47024.6  66518.8  7868.22
    6422.08  47257.6  67186.3  7973.73
    6426.15  47507.1  67898.3  8074.78
    6430.32  47745.2  68622.8  8171.35
    6434.4  47988.8  69350.8  8259.45
    6438.58  48191.9  70042.3  8349.09
    6442.76  48450.6  70789.3  8446.24
    6446.95  48673.7  71519.8  8555.93
    6451.23  48945.4  72319.9  8687.15
    6455.43  49169.7  73063.4  8813.9
    6459.72  49395.4  73820.5  8941.17
    6463.93  49654.7  74624  9066.98
    6468.24  49907.5  75432.1  9187.31
    6472.55  50121.8  76175.7  9301.17
    6476.95  50379.7  76989.8  9428.56
    6481.28  50591  77768.4  9552.48
    6485.61  50857.9  78606.6  9687.93
    6490.03  51091.4  79429.2  9814.91
    6494.46  51370.3  80324.3  9943.42
    6498.9  51602.8  81167  10061.5
    6503.34  51814.8  81928.2  10177
    6507.79  52098.4  82862.8  10322.1
    6512.34  52320.4  83676  10457.7
    6516.8  52542  84471.7  10595.9
    6521.35  52782.1  85342.9  10740.6
    6525.92  53012.8  86198.6  10878.8
    6530.49  53250.9  87056.9  11023.5
    6535.07  53484.6  87927.6  11160.8
    6539.65  53698.8  88760.8  11291.6
    6544.25  53911.6  89633.6  11423.9
    6548.94  54131.8  90496.9  11551.8
    6553.54  54312.6  91279.7  11669.1
    6558.24  54555.9  92188.9  11810.1
    6562.95  54755.8  93022.7  11943.5
    6567.67  55015.2  93987.1  12102.5
    6572.4  55266.1  94933.9  12259
    6577.22  55509.5  95867.2  12414
    6581.96  55737.4  96807.1  12572.6
    6586.79  55998.9  97808.4  12738.6
    6591.55  56204.9  98712.3  12893.3
    6596.4  56449.4  99652.6  13055.4
    6601.26  56691.5  100681  13224.1
    6606.12  56925.1  101638  13383.3
    6611.09  57142.2  102614  13544
    6615.97  57373.8  103606  13709.3
    6620.95  57613  104633  13874.1
    6625.85  57779.6  105500  14023.4
    6630.85  58039.8  106594  14207.2
    6635.85  58279.6  107615  14386.6
    6640.87  58505.8  108643  14571.5
    6645.89  58662.6  109542  14732.9
    6650.92  58863.9  110515  14902.9
    6655.96  59098.8  111583  15089.4
    6661.1  59319.1  112637  15274.4
    6666.15  59568  113725  15461
    6671.31  59697.4  114612  15620
    6676.47  59933.4  115696  15806.6
    6681.64  60100.8  116700  15981.8
    6686.82  60252.8  117635  16148.5
    6692.01  60306.4  118390  16291.7
    6697.3  60171.4  118801  16387.4
    6702.51  57406  114008  15758.6
    6707.72  62569.1  124907  17308.4
    6713.04  62109.7  124721  17322.7
    6718.37  62051.8  125281  17443.6
    6723.7  62125.5  126157  17612.9
    6729.05  62197.7  127027  17777.8
    6734.4  62201.4  127714  17923.3
    6739.77  62887.7  129882  18271.2
    6745.14  62713.5  130250  18378.7
    6750.61  61844.8  129149  18279.7
    6756  62290.6  130893  18572.2
    6761.5  62433  131948  18767.3
    6766.91  63647.9  135230  19284.9
    6772.42  62352.3  133262  19058
    6777.94  64201.2  137978  19786.7
    6783.48  64258.7  138884  19968.9
    6789.02  64256.6  139689  20135.6
    6794.57  64299.2  140591  20327.8
    6800.23  63957.2  140618  20381.6
    6805.8  61681.8  136588  19845.9
    6811.48  66506.8  147907  21546.8
    6817.07  66023.5  147696  21565.1
    6822.77  65971.6  148435  21735
    6828.47  66097.3  149584  21960.4
    6834.19  66186.5  150645  22176.4
    6839.92  66329.2  151848  22404.8
    6845.66  66505.4  153127  22652.8
    6851.4  66657.2  154361  22894.4
    6857.16  66792.5  155580  23131.5
    6863.03  66924.3  156800  23380
    6868.81  67055.7  158036  23619.2
    6874.7  67213.5  159333  23879.8
    6880.5  67380.9  160597  24133
    6886.41  67471.9  161781  24378.7
    6892.33  67657.3  163178  24663.9
    6898.26  67817.3  164496  24924.7
    6904.2  68001.8  165862  25199
    6910.15  68085.8  167054  25449.8
    6916.11  68243.4  168381  25730.2
    6922.09  68181.5  169189  25924.1
    6928.18  68261.1  170428  26196.5
    6934.17  68429.2  171803  26478.4
    6940.28  68517.9  173024  26748.9
    6946.3  68652.1  174388  27028.9
    6952.43  68758.8  175633  27294.4
    6958.57  68885  176955  27578.5
    6964.62  69032.8  178330  27861
    6970.78  69124.1  179590  28120.2
    6976.96  69291.9  181048  28420.8
    6983.15  69391.2  182317  28698
    6989.35  69487.1  183631  28970.7
    6995.66  69592.5  184983  29268.9
    7001.88  69658.4  186187  29531.7
    7008.12  69783.9  187628  29831
    7014.47  69900.8  188970  30133.8
    7020.72  70002.3  190294  30419.1
    7027.1  70087.3  191643  30719
    7033.38  70202.9  193007  31011.4
    7039.77  70285  194326  31304.3
    7046.18  70362.6  195615  31588.8
    7052.6  70460.7  196991  31890.8
    7059.04  70572.3  198368  32200.3
    7065.48  70684.5  199767  32512.3
    7071.94  70749.2  201076  32813.9
    7078.41  70894.5  202576  33152
    7084.9  70938.2  203561  33399.7
    7091.39  71055.5  205296  33762.8
    7097.9  71067.3  206471  34046.5
    7104.53  71095.6  207680  34337.7
    7111.06  71179.5  209122  34666.5