File: data/Cr/na2cro4_15K_002.xdi
# XDI/1.0
# Column.1: energy eV
# Column.2: i0
# Column.3: itrans
# Column.4: irefer
# Beamline.name: SSRL 2-3
# Beamline.notes: vert slits = 0.6mm
# Detector.I0: N2 15cm
# Detector.I1: N2 30cm
# Detector.I2: N2 15cm
# Element.edge: K
# Element.symbol: Cr
# Mono.d_spacing: 3.13550
# Mono.name: Si(111)
# Mono.notes: unfocused, detuned 75%, clockwise at E=5990eV
# Sample.formula: Na2CrO4
# Sample.name: Na2CrO4
# Sample.prep: powder on tape (4 layers)
# Sample.reference: Cr foil
# Sample.temperature: 15K
# Scan.start_time: 1997-04-18 15:04:31
# ///
#    Note: mono d_spacing is nominal!
#     exafs to K16
#     396  E XMU XMUR I0
#-------------
#   energy   i0   itrans  irefer
    5759.99  232309  11958.7  1517.3
    5769.98  231771  12161.7  1553.3
    5780.01  231445  12386.7  1591.3
    5790  231263  12616.7  1629.3
    5799.97  231466  12873.7  1675.3
    5810.03  231194  13113.7  1716.3
    5820  230651  13330.7  1756.3
    5830  230541  13581.7  1799.3
    5839.97  230010  13805.7  1841.3
    5849.98  229831  14065.7  1887.3
    5860.02  229544  14307.7  1933.3
    5870.02  228974  14541.7  1976.3
    5879.99  229058  14817.7  2025.3
    5890  228629  15061.7  2070.3
    5899.97  227772  15279.7  2114.3
    5909.98  226838  15498.7  2157.3
    5920.02  226797  15776.7  2209.3
    5930.03  226496  16034.7  2257.3
    5939.99  226382  16300.7  2306.3
    5950  225963  16554.7  2356.3
    5959.97  225256  16782.7  2401.3
    5969.97  224961  17044.7  2449.3
    5970.49  224952  17058.7  2452.3
    5971.01  224754  17059.7  2451.3
    5971.53  224385  17045.7  2451.3
    5971.97  223179  16966.7  2441.3
    5972.49  221613  16862.7  2425.3
    5973.01  222199  16909.7  2434.3
    5973.53  224224  17075.7  2457.3
    5973.98  225895  17220.7  2478.3
    5974.5  226212  17264.7  2485.3
    5975.02  226160  17267.7  2488.3
    5975.46  226624  17312.7  2492.3
    5975.98  226775  17341.7  2498.3
    5976.51  226638  17350.7  2501.3
    5977.03  226356  17342.7  2501.3
    5977.47  226179  17345.7  2501.3
    5977.99  226264  17362.7  2503.3
    5978.52  226240  17369.7  2505.3
    5979.04  226244  17386.7  2508.3
    5979.48  226694  17430.7  2516.3
    5980.01  226580  17433.7  2515.3
    5980.53  226475  17442.7  2517.3
    5980.97  226289  17439.7  2517.3
    5981.49  226352  17459.7  2519.3
    5982.02  226497  17486.7  2523.3
    5982.46  226790  17517.7  2526.3
    5982.99  227377  17581.7  2536.3
    5983.51  228613  17691.7  2549.3
    5984.03  229102  17737.7  2556.3
    5984.48  229267  17766.7  2559.3
    5985  229142  17761.7  2558.3
    5985.52  228605  17728.7  2555.3
    5985.97  227027  17624.7  2538.3
    5986.49  221320  17189.7  2474.3
    5987.02  208636  16207.7  2332.3
    5987.46  199786  15520.7  2231.3
    5987.99  206389  16043.7  2302.3
    5988.51  216692  16858.7  2412.3
    5989.03  222542  17319.7  2467.3
    5989.48  225288  17523.7  2482.3
    5990  226344  17593.7  2456.3
    5990.53  225934  17547.7  2381.3
    5990.98  226199  17543.7  2321.3
    5991.5  227063  17550.7  2265.3
    5992.02  228540  17572.7  2220.3
    5992.47  229094  17497.7  2178.3
    5992.99  229414  17286.7  2119.3
    5993.52  229439  16788.7  2030.3
    5993.97  229367  15953.7  1910.3
    5994.49  229170  14490.7  1717.3
    5995.02  229389  13731.7  1612.3
    5995.47  229448  14424.7  1685.3
    5995.99  229321  15876.7  1849.3
    5996.51  229272  16846.7  1960.3
    5996.96  229262  17217.7  2003.3
    5997.49  229318  17432.7  2026.3
    5998.01  229418  17526.7  2030.3
    5998.54  229326  17538.7  2012.3
    5998.99  229149  17494.7  1980.3
    5999.51  229068  17413.7  1931.3
    6000.04  228992  17306.7  1879.3
    6000.49  228932  17182.7  1832.3
    6001.01  228073  16957.7  1770.3
    6001.46  226443  16718.7  1717.3
    6001.99  225176  16514.7  1667.3
    6002.51  225990  16473.7  1637.3
    6002.96  227838  16512.7  1622.3
    6003.49  229002  16467.7  1597.3
    6004.02  229011  16314.7  1566.3
    6004.47  228968  16163.7  1536.3
    6004.99  229058  15982.7  1506.3
    6005.52  229079  15764.7  1469.3
    6005.97  229248  15570.7  1440.3
    6006.5  229019  15289.7  1401.3
    6007.02  228695  14984.7  1361.3
    6007.47  228901  14735.7  1328.3
    6008  228935  14413.7  1286.3
    6008.53  228824  14081.7  1245.3
    6008.98  228670  13820.7  1211.3
    6009.5  228748  13582.7  1179.3
    6010.03  228711  13384.7  1151.3
    6010.94  228941  13095.5  1111.06
    6011.84  229019  12833.7  1094.36
    6012.82  228822  12712.5  1107.18
    6013.8  228839  12715.8  1135.53
    6014.78  228779  12711.6  1159.42
    6015.76  229002  12715.9  1173.83
    6016.81  228541  12691.8  1171.76
    6017.8  229132  12699.1  1165.23
    6018.93  229133  12659  1148.23
    6019.99  229359  12636.4  1132.76
    6021.12  229490  12624.3  1124.82
    6022.18  229857  12630.7  1126.4
    6023.39  230231  12650.6  1133.52
    6024.52  230183  12632  1141.16
    6025.73  230458  12607  1140.33
    6026.87  230912  12602.4  1136.04
    6028.16  231126  12635.4  1128.27
    6029.37  231235  12696.9  1123.03
    6030.58  231314  12776.9  1122.32
    6031.87  231515  12870.4  1125.14
    6033.16  231898  12955.4  1129.49
    6034.53  232424  13015  1135.37
    6035.82  233017  13058  1138.77
    6037.19  233735  13104.6  1140.71
    6038.56  234172  13125.7  1138.18
    6040  234489  13155.3  1132.17
    6041.37  235199  13238.4  1138.7
    6042.82  235449  13364  1151.75
    6044.26  235861  13535.2  1170.33
    6045.71  236357  13689.8  1192.44
    6047.24  236979  13879  1210.08
    6048.76  237710  14040.7  1230.25
    6050.29  238180  14107.9  1244.95
    6051.82  238538  14177.6  1263.18
    6053.42  239193  14309.8  1289.94
    6054.95  240094  14446.5  1317.23
    6056.56  240839  14600.8  1347.04
    6058.24  241610  14755.5  1373.39
    6059.85  242067  14862.8  1393.26
    6061.53  242164  14947.6  1407.66
    6063.22  242758  15060.9  1419.6
    6064.91  243497  15163.7  1424.06
    6066.68  244227  15274  1424.05
    6068.36  245120  15389.9  1420.57
    6070.13  245959  15500.2  1411.62
    6071.9  246754  15587.1  1402.2
    6073.75  247659  15678.5  1400.31
    6075.52  248327  15758.4  1416.94
    6077.37  249302  15845.8  1444.11
    6079.22  250415  15946.7  1470.81
    6081.15  251695  16050.1  1503.03
    6083  252595  16134.1  1533.79
    6084.93  253314  16218.6  1562.07
    6086.87  254238  16316.5  1581.88
    6088.8  255622  16456  1587.22
    6090.81  256432  16575  1575.09
    6092.83  257639  16729.5  1554.49
    6094.84  258516  16866.6  1530.42
    6096.86  259827  17022.1  1511.88
    6098.88  260812  17144.2  1499.87
    6100.98  261749  17266.7  1493.39
    6103.07  263042  17405.8  1511.43
    6105.18  264102  17509.4  1541.01
    6107.28  265447  17599.6  1582.11
    6109.46  266640  17678.2  1628.74
    6111.64  267754  17768.3  1673.91
    6113.83  268907  17891  1713.6
    6116.01  269956  18012.1  1744.82
    6118.28  271443  18182.8  1767.57
    6120.47  273024  18346  1782.85
    6122.74  274097  18475.7  1785.66
    6125.01  275279  18603  1796
    6127.36  276498  18741.7  1813.87
    6129.64  277956  18909.9  1839.26
    6131.99  279202  19072.7  1871.19
    6134.35  280389  19235  1897.65
    6136.79  281822  19436.8  1922.63
    6139.15  283382  19647.1  1944.14
    6141.59  284718  19857.9  1960.18
    6144.04  285982  20056.2  1975.76
    6146.48  287572  20283.1  1991.86
    6148.93  289292  20513.4  2004.49
    6151.46  290574  20705.3  2012.65
    6153.99  292236  20934.7  2030.34
    6156.53  293754  21157.6  2048.55
    6159.06  295111  21364  2058.3
    6161.6  296869  21599.9  2062.58
    6164.22  298438  21823.4  2060.38
    6166.84  299978  22048.3  2069.72
    6169.47  301621  22298.8  2101.58
    6172.1  303148  22535.8  2147.98
    6174.81  304906  22790.3  2205.9
    6177.52  306508  23029.3  2261.35
    6180.23  307952  23251.8  2308.33
    6182.95  309516  23490.8  2352.84
    6185.67  311228  23754.4  2397.88
    6188.47  313039  24037.4  2441.45
    6191.27  315078  24332  2479.54
    6194.08  316727  24591.1  2514.17
    6196.89  318794  24875.7  2554.33
    6199.7  320515  25139.8  2592.01
    6202.6  321967  25357.4  2619.23
    6205.5  323654  25609.6  2654.97
    6208.4  325341  25846.2  2692.24
    6211.3  327535  26142.4  2741.04
    6214.21  329267  26386.1  2783.38
    6217.2  331464  26684.3  2821.23
    6220.2  333490  26953  2847.62
    6223.19  335250  27210.2  2863.54
    6226.19  336925  27453  2875.99
    6229.2  338892  27729.2  2886.97
    6232.28  340778  28000  2896.48
    6235.38  341174  28167.3  2896.51
    6238.47  345383  28657.1  2925.08
    6241.56  337831  28145.4  2864.17
    6244.75  347195  29072.2  2956.79
    6247.85  350173  29461.6  3005.95
    6251.04  352553  29807.4  3068.63
    6254.23  354547  30126.7  3144.84
    6257.43  356587  30456.6  3225.58
    6260.71  358538  30793  3297.85
    6263.91  360581  31115.9  3353.65
    6267.2  362694  31471.3  3397.97
    6270.49  364389  31801.3  3439.83
    6273.79  366933  32201.7  3489.22
    6277.17  368966  32548.7  3539.13
    6280.48  371134  32910.1  3591.58
    6283.86  373066  33276.1  3636.55
    6287.26  375308  33666.6  3682.05
    6290.65  377331  34037.6  3729.09
    6294.06  379613  34433.1  3778.65
    6297.54  381816  34830.2  3838.74
    6300.95  383782  35214.7  3901.36
    6304.45  385835  35614.8  3955.51
    6307.95  387986  36015.4  4010.18
    6311.54  390652  36465.5  4068.39
    6315.05  392688  36871.1  4110.13
    6318.56  395114  37320.2  4153.39
    6322.16  397457  37750.8  4193.19
    6325.77  399602  38179  4231.51
    6329.38  401993  38611.6  4278.37
    6333.07  403504  38974.8  4316.75
    6336.69  405816  39408.5  4367.66
    6340.4  408220  39865.7  4425.1
    6344.11  410713  40339.4  4491.07
    6347.83  412753  40768.6  4562.57
    6351.55  414724  41180.4  4630.6
    6355.27  417273  41650.7  4701.16
    6359.09  419630  42118.4  4776.24
    6362.82  422195  42594.7  4857.86
    6366.65  424320  43046.5  4937.01
    6370.47  426188  43459.8  5009.68
    6374.31  428668  43935.7  5081.88
    6378.23  431042  44436  5149.62
    6382.07  433243  44907.8  5209.88
    6386.01  435178  45363.2  5275.67
    6389.95  436671  45761.1  5333.99
    6393.89  440257  46375.5  5425.85
    6397.84  442627  46880.4  5495.22
    6401.88  444812  47397.8  5564.13
    6405.84  447058  47900.7  5629.57
    6409.89  449645  48447.2  5703.53
    6413.95  452184  49019.1  5786.03
    6418.01  454474  49549.6  5869.05
    6422.08  456910  50121.6  5950.61
    6426.15  459115  50655.1  6032.69
    6430.32  461535  51227.1  6106.3
    6434.4  464361  51850.6  6185.45
    6438.58  466810  52447.7  6260.12
    6442.76  468933  53006.2  6330.32
    6446.95  471526  53629.3  6426.05
    6451.23  473935  54229.9  6524.31
    6455.43  475971  54787  6620.09
    6459.72  478394  55420.6  6722.41
    6463.93  480538  56008.7  6819.26
    6468.24  483104  56657.3  6919.63
    6472.55  485096  57231.5  7004.54
    6476.95  488883  58037.2  7121.97
    6481.28  490608  58622.3  7216.93
    6485.61  493426  59332  7326.43
    6490.03  495883  59986.2  7430.45
    6494.46  498117  60622  7521
    6498.9  500037  61235.2  7609.08
    6503.34  502087  61874  7704.69
    6507.79  504355  62530.2  7807.83
    6512.34  507183  63283  7928.5
    6516.8  509611  63972.3  8042.69
    6521.35  512352  64704.1  8158.41
    6525.92  513987  65300.4  8259.67
    6530.49  517449  66148.2  8388.46
    6535.07  519589  66827.5  8500.77
    6539.65  521038  67396.4  8597.61
    6544.25  523892  68173.7  8707.98
    6548.94  525782  68832.7  8806.89
    6553.54  528318  69579  8919.32
    6558.24  530552  70308  9027.28
    6562.95  532820  71039.3  9143.76
    6567.67  534900  71743.3  9258.78
    6572.4  537400  72508.8  9382.33
    6577.22  540382  73376.7  9523.4
    6581.96  542891  74157.2  9654.01
    6586.79  545190  74926.2  9785.15
    6591.55  547449  75685.7  9909.81
    6596.4  549848  76480.7  10046
    6601.26  551857  77229.2  10175.7
    6606.12  554296  78048.3  10302
    6611.09  556791  78880.8  10434.8
    6615.97  559108  79693.9  10575.1
    6620.95  562112  80636.5  10728.9
    6625.85  563886  81373.6  10849.3
    6630.85  565275  82067.2  10974.2
    6635.85  567175  82830.3  11110.6
    6640.87  570073  83781  11265.6
    6645.89  572931  84721.2  11427.1
    6650.92  574116  85425.8  11553.1
    6655.96  577204  86421  11716.6
    6661.1  579742  87322.7  11878.7
    6666.15  581318  88101.9  12013.3
    6671.31  584001  89047.6  12172.4
    6676.47  585296  89803.8  12307.1
    6681.64  587351  90658.6  12451.3
    6686.82  589257  91495.9  12593
    6692.01  589763  92132.6  12717.2
    6697.3  589575  92668.9  12822
    6702.51  569606  90191.7  12501.3
    6707.72  613385  97583.1  13562.2
    6713.04  607342  97233.8  13540.5
    6718.37  607084  97789.2  13653.4
    6723.7  608081  98551  13791.8
    6729.05  608819  99288.4  13926.8
    6734.4  609070  99948.4  14062.3
    6739.77  614398  101414  14305.3
    6745.14  615142  102200  14453.8
    6750.61  600213  100298  14227.9
    6756  600862  101068  14371.5
    6761.5  610636  103504  14755.6
    6766.91  625601  106574  15236.3
    6772.42  610358  104675  15002.5
    6777.94  631250  108902  15654.2
    6783.48  631712  109662  15800.4
    6789.02  632115  110416  15949.2
    6794.57  632530  111190  16110.5
    6800.23  630512  111508  16202.3
    6805.8  595014  105974  15442.7
    6811.48  652888  116921  17076.6
    6817.07  648972  116964  17122
    6822.77  649851  117866  17302.9
    6828.47  650418  118723  17478.4
    6834.19  652006  119778  17671.4
    6839.92  653160  120746  17867
    6845.66  654875  121828  18071
    6851.4  656776  122952  18275.6
    6857.16  658395  124045  18489.8
    6863.03  660067  125165  18704.4
    6868.81  661282  126169  18908.6
    6874.7  662897  127291  19128.3
    6880.5  664838  128480  19360.5
    6886.41  666379  129592  19566.3
    6892.33  668505  130838  19815.6
    6898.26  669950  131955  20036.5
    6904.2  671903  133153  20273.8
    6910.15  672005  134036  20454.7
    6916.11  674047  135291  20703.1
    6922.09  675308  136405  20931
    6928.18  676491  137517  21165.5
    6934.17  677809  138686  21403.5
    6940.28  680085  140033  21666
    6946.3  680776  141071  21888.1
    6952.43  682083  142232  22130.7
    6958.57  683670  143454  22374.8
    6964.62  685308  144696  22635.5
    6970.78  686389  145840  22876.7
    6976.96  688727  147263  23154.4
    6983.15  689713  148359  23389.6
    6989.35  691094  149583  23645.4
    6995.66  692384  150788  23897.7
    7001.88  694165  152110  24172.5
    7008.12  694521  153113  24384.8
    7014.47  695770  154353  24650.7
    7020.72  697128  155567  24895.1
    7027.1  698798  156922  25179.1
    7033.38  699778  158088  25432.6
    7039.77  701383  159386  25706.6
    7046.18  703129  160808  25999.1
    7052.6  702882  161712  26222.2
    7059.04  704647  163101  26511.7
    7065.48  705913  164401  26787.9
    7071.94  706586  165551  27046.5
    7078.41  708584  167038  27356.7
    7084.9  710523  168505  27669.4
    7091.39  711365  169696  27944.6
    7097.9  711119  170670  28180.4
    7104.53  712024  171947  28463.7
    7111.06  712860  173185  28741.5