File: data/Cr/na2cro4_15K_001.xdi
# XDI/1.0
# Column.1: energy eV
# Column.2: i0
# Column.3: itrans
# Column.4: irefer
# Beamline.name: SSRL 2-3
# Beamline.notes: vert slits = 0.6mm
# Detector.I0: N2 15cm
# Detector.I1: N2 30cm
# Detector.I2: N2 15cm
# Element.edge: K
# Element.symbol: Cr
# Mono.d_spacing: 3.13550
# Mono.name: Si(111)
# Mono.notes: unfocused, detuned 75%, clockwise at E=5990eV
# Sample.formula: Na2CrO4
# Sample.name: Na2CrO4
# Sample.prep: powder on tape (4 layers)
# Sample.reference: Cr foil
# Sample.temperature: 15K
# Scan.start_time: 1997-04-18 15:04:31
# ///
#    Note: mono d_spacing is nominal!
#     exafs to K16
#     396  E XMU XMUR I0
#-------------
#   energy   i0   itrans  irefer
    5759.99  239152  12307.7  1562.3
    5769.98  239113  12549.7  1602.3
    5780.01  238831  12781.7  1642.3
    5790  238553  13015.7  1682.3
    5799.97  238361  13260.7  1726.3
    5810.03  238256  13513.7  1768.3
    5820  238033  13759.7  1812.3
    5830  237665  14010.7  1856.3
    5839.97  237529  14259.7  1902.3
    5849.98  237048  14501.7  1943.3
    5860.02  236982  14769.7  1993.3
    5870.02  236601  15024.7  2039.3
    5879.99  236263  15282.7  2088.3
    5890  236093  15551.7  2136.3
    5899.97  235667  15809.7  2185.3
    5909.98  235291  16076.7  2234.3
    5920.02  234907  16336.7  2284.3
    5930.03  234588  16599.7  2334.3
    5939.99  234283  16871.7  2387.3
    5950  233982  17147.7  2437.3
    5959.97  233463  17402.7  2486.3
    5969.97  232942  17649.7  2534.3
    5970.49  232819  17650.7  2536.3
    5971.01  232595  17653.7  2537.3
    5971.53  231999  17622.7  2531.3
    5971.97  230796  17547.7  2522.3
    5972.49  229070  17429.7  2508.3
    5973.01  229046  17434.7  2506.3
    5973.53  230817  17580.7  2528.3
    5973.98  232221  17705.7  2547.3
    5974.5  232753  17765.7  2554.3
    5975.02  232854  17783.7  2558.3
    5975.46  232859  17794.7  2559.3
    5975.98  233053  17824.7  2566.3
    5976.51  232919  17826.7  2565.3
    5977.03  232836  17838.7  2568.3
    5977.47  232672  17835.7  2569.3
    5977.99  232727  17849.7  2571.3
    5978.52  232790  17874.7  2576.3
    5979.04  232792  17886.7  2577.3
    5979.48  232719  17893.7  2577.3
    5980.01  232551  17888.7  2577.3
    5980.53  232561  17910.7  2579.3
    5980.97  232623  17926.7  2582.3
    5981.49  232939  17965.7  2588.3
    5982.02  232921  17978.7  2590.3
    5982.46  233022  17997.7  2591.3
    5982.99  232851  17995.7  2593.3
    5983.51  233001  18020.7  2597.3
    5984.03  233032  18036.7  2598.3
    5984.48  233175  18060.7  2601.3
    5985  233011  18062.7  2603.3
    5985.52  232262  18016.7  2596.3
    5985.97  230211  17867.7  2573.3
    5986.49  224236  17422.7  2505.3
    5987.02  211649  16443.7  2363.3
    5987.46  201347  15644.7  2248.3
    5987.99  206408  16046.7  2302.3
    5988.51  217227  16895.7  2418.3
    5989.03  223492  17388.7  2479.3
    5989.48  226620  17627.7  2498.3
    5990  228421  17763.7  2484.3
    5990.53  229214  17812.7  2425.3
    5990.98  229603  17817.7  2361.3
    5991.5  229875  17783.7  2299.3
    5992.02  230008  17702.7  2239.3
    5992.47  230497  17633.7  2196.3
    5992.99  230546  17413.7  2137.3
    5993.52  230519  16956.7  2050.3
    5993.97  230314  16167.7  1934.3
    5994.49  230416  14729.7  1742.3
    5995.02  230496  13809.7  1617.3
    5995.47  230673  14349.7  1673.3
    5995.99  230491  15792.7  1834.3
    5996.51  230368  16840.7  1954.3
    5996.96  230109  17249.7  2001.3
    5997.49  230344  17490.7  2029.3
    5998.01  230632  17617.7  2036.3
    5998.54  230363  17623.7  2018.3
    5998.99  230381  17600.7  1992.3
    5999.51  230020  17501.7  1941.3
    6000.04  230066  17401.7  1888.3
    6000.49  229810  17261.7  1840.3
    6001.01  229166  17051.7  1779.3
    6001.46  227563  16810.7  1723.3
    6001.99  226053  16587.7  1670.3
    6002.51  226547  16522.7  1637.3
    6002.96  228217  16547.7  1619.3
    6003.49  229604  16526.7  1598.3
    6004.02  229932  16399.7  1567.3
    6004.47  230046  16260.7  1538.3
    6004.99  230028  16063.7  1503.3
    6005.52  230016  15848.7  1468.3
    6005.97  229965  15639.7  1439.3
    6006.5  229948  15379.7  1401.3
    6007.02  230115  15096.7  1362.3
    6007.47  229970  14827.7  1326.3
    6008  229758  14487.7  1282.3
    6008.53  229766  14158.7  1242.3
    6008.98  229912  13919.7  1210.3
    6009.5  229963  13668.7  1176.3
    6010.03  229874  13461.7  1148.3
    6010.94  229717  13151.5  1105.06
    6011.84  229622  12883.7  1087.36
    6012.82  229732  12769.5  1100.18
    6013.8  229844  12777.8  1132.53
    6014.78  229997  12780.6  1158.42
    6015.76  229890  12775.9  1169.83
    6016.81  230005  12777.8  1171.77
    6017.8  230136  12760.1  1164.23
    6018.93  230469  12731  1145.23
    6019.99  230515  12700.4  1130.76
    6021.12  230758  12699.3  1120.82
    6022.18  230860  12688.7  1121.4
    6023.39  230945  12694.6  1129.52
    6024.52  231073  12684  1136.16
    6025.73  231491  12674  1138.34
    6026.87  231896  12664.4  1131.04
    6028.16  232293  12706.4  1124.27
    6029.37  232535  12778.9  1122.03
    6030.58  232712  12868.9  1123.32
    6031.87  233051  12957.4  1126.14
    6033.16  233481  13052.5  1130.49
    6034.53  233870  13103  1135.37
    6035.82  234312  13137  1140.77
    6037.19  234724  13161.6  1139.71
    6038.56  235339  13198.7  1138.18
    6040  235439  13210.3  1133.17
    6041.37  236075  13297.4  1137.69
    6042.82  236335  13426  1149.75
    6044.26  237304  13619.2  1171.33
    6045.71  237593  13766.8  1190.44
    6047.24  238230  13958  1210.08
    6048.76  238791  14111.7  1228.25
    6050.29  239605  14193.9  1244.95
    6051.82  239615  14246.6  1261.18
    6053.42  240463  14383.8  1290.94
    6054.95  240933  14505.5  1315.23
    6056.56  241869  14668.8  1344.04
    6058.24  242492  14808.5  1369.39
    6059.85  243171  14934.8  1390.26
    6061.53  243378  15027.6  1406.66
    6063.22  244057  15146.9  1418.6
    6064.91  244582  15240.7  1424.06
    6066.68  245312  15347  1422.05
    6068.36  245941  15441.9  1415.57
    6070.13  246866  15559.2  1408.62
    6071.9  247637  15641.1  1399.2
    6073.75  248491  15735.5  1397.31
    6075.52  249563  15840.4  1415.94
    6077.37  250457  15925.8  1441.11
    6079.22  251453  16013.7  1470.81
    6081.15  252339  16098.1  1499.03
    6083  253339  16185.1  1530.79
    6084.93  254191  16274.6  1558.07
    6086.87  255208  16386.5  1577.88
    6088.8  256130  16497  1582.22
    6090.81  257076  16625  1570.09
    6092.83  257977  16761.5  1548.5
    6094.84  259149  16909.6  1525.42
    6096.86  260173  17044.1  1505.88
    6098.88  261615  17205.2  1492.87
    6100.98  262749  17334.8  1491.39
    6103.07  264102  17479.8  1508.43
    6105.18  265183  17582.4  1540.01
    6107.28  266231  17656.5  1581.11
    6109.46  267079  17719.2  1626.75
    6111.64  268685  17840.3  1675.91
    6113.83  269718  17938  1715.6
    6116.01  271074  18089.1  1748.82
    6118.28  272468  18255.8  1771.57
    6120.47  273678  18397  1782.85
    6122.74  275219  18556.7  1790.66
    6125.01  276266  18677  1800
    6127.36  277814  18840.7  1821.87
    6129.64  278840  18972.9  1845.27
    6131.99  280322  19149.7  1876.19
    6134.35  281877  19348  1906.64
    6136.79  283007  19518.8  1927.63
    6139.15  284536  19734.1  1948.14
    6141.59  285886  19938.9  1967.18
    6144.04  287521  20173.2  1986.76
    6146.48  288851  20378.1  2000.86
    6148.93  290326  20587.4  2010.49
    6151.46  291851  20801.3  2019.65
    6153.99  293286  21012.7  2036.34
    6156.53  295021  21248.6  2057.55
    6159.06  296356  21455  2067.3
    6161.6  298096  21680.9  2071.58
    6164.22  299606  21904.4  2069.38
    6166.84  301198  22143.3  2081.72
    6169.47  302881  22396.8  2111.58
    6172.1  304462  22635.8  2157.97
    6174.81  306230  22892.3  2214.9
    6177.52  307988  23136.3  2272.35
    6180.23  309960  23408.8  2324.33
    6182.95  311606  23650.8  2368.84
    6185.67  313081  23891.4  2408.88
    6188.47  314884  24174.4  2443.45
    6191.27  316788  24457  2478.54
    6194.08  318051  24689.1  2510.17
    6196.89  320133  24979.7  2549.33
    6199.7  321326  25187.8  2581.01
    6202.6  323176  25448.5  2616.23
    6205.5  325155  25717.6  2651.97
    6208.4  326910  25967.3  2692.24
    6211.3  328869  26242.4  2740.04
    6214.21  330822  26506.1  2784.38
    6217.2  332427  26748.3  2817.24
    6220.2  334146  27001  2841.62
    6223.19  335949  27262.3  2855.55
    6226.19  337805  27517  2867.99
    6229.2  339604  27776.2  2879.97
    6232.28  342079  28106  2891.48
    6235.38  342844  28293.3  2894.51
    6238.47  346518  28731.1  2922.07
    6241.56  338354  28181.4  2855.17
    6244.75  347397  29086.2  2941.79
    6247.85  349848  29431.5  2987.94
    6251.04  352609  29804.4  3050.63
    6254.23  354624  30120.8  3125.84
    6257.43  356253  30420.6  3201.58
    6260.71  358078  30733  3272.85
    6263.91  359848  31051.9  3322.65
    6267.2  360914  31313.3  3357.97
    6270.49  362885  31653.3  3399.83
    6273.79  365567  32052.7  3452.22
    6277.17  366574  32324.7  3491.14
    6280.48  368919  32705.1  3544.58
    6283.86  372318  33189.1  3604.55
    6287.26  374194  33546.6  3644.05
    6290.65  375146  33818.6  3681.09
    6294.06  375588  34037.1  3710.64
    6297.54  377511  34406.2  3770.74
    6300.95  379113  34747.7  3820.35
    6304.45  381566  35192.8  3885.5
    6307.95  384033  35629.4  3944.18
    6311.54  387173  36121.5  4003.39
    6315.05  388444  36444.1  4040.13
    6318.56  390345  36856.2  4077.4
    6322.16  392148  37237.8  4110.18
    6325.77  394552  37665  4149.51
    6329.38  396551  38068.6  4192.36
    6333.07  398499  38474.8  4239.75
    6336.69  400325  38863.5  4285.66
    6340.4  401989  39239.7  4336.1
    6344.11  404623  39725.4  4407.07
    6347.83  407220  40199.7  4480.57
    6351.55  409584  40645.4  4546.6
    6355.27  412430  41148.6  4622.15
    6359.09  413940  41529.4  4690.24
    6362.82  416499  42000.7  4770.86
    6366.65  418202  42405.5  4843
    6370.47  421251  42928.8  4925.68
    6374.31  423475  43392.6  4998.89
    6378.23  426200  43909  5068.62
    6382.07  428087  44345.8  5126.88
    6386.01  430718  44872.2  5193.67
    6389.95  433422  45399.1  5268.99
    6393.89  435104  45819.5  5330.84
    6397.84  438091  46380.4  5408.22
    6401.88  439838  46842.8  5468.13
    6405.84  444389  47585.7  5567.56
    6409.89  448081  48256.2  5657.53
    6413.95  450672  48824.1  5732.03
    6418.01  452018  49262.6  5801.05
    6422.08  454258  49809.6  5882.61
    6426.15  456598  50356.1  5958.69
    6430.32  458698  50884.1  6035.31
    6434.4  461135  51457.6  6105.44
    6438.58  462846  51954.7  6163.12
    6442.76  464930  52512.2  6238.31
    6446.95  467808  53152.3  6334.05
    6451.23  471046  53848.9  6441.31
    6455.43  473623  54467  6545.09
    6459.72  477554  55277.6  6667.41
    6463.93  480005  55898.7  6761.26
    6468.24  480294  56277.3  6828.63
    6472.55  483439  56988.5  6933.54
    6476.95  487021  57771.2  7047.97
    6481.28  489414  58431.4  7148.94
    6485.61  491535  59035  7251.42
    6490.03  492973  59593.3  7333.45
    6494.46  494626  60143.9  7418.99
    6498.9  496360  60728.2  7502.08
    6503.34  501019  61680  7635.69
    6507.79  505819  62651.2  7772.82
    6512.34  510090  63565  7915.5
    6516.8  511493  64132.2  8007.69
    6521.35  512844  64692.1  8105.42
    6525.92  514447  65299.4  8209.68
    6530.49  519351  66308.2  8359.46
    6535.07  520549  66884.5  8450.77
    6539.65  520254  67233.4  8513.62
    6544.25  516072  67093.8  8514.99
    6548.94  515487  67427.6  8568.89
    6553.54  516917  68016  8661.31
    6558.24  518200  68599.9  8755.27
    6562.95  520717  69358.4  8874.77
    6567.67  523467  70150.3  9002.79
    6572.4  526761  71015.7  9140.33
    6577.22  528576  71705.7  9253.4
    6581.96  531039  72468.2  9386.01
    6586.79  532841  73146.2  9499.14
    6591.55  534731  73847.7  9616.81
    6596.4  535417  74401.7  9716
    6601.26  536973  75055.2  9831.73
    6606.12  538766  75773.3  9951.98
    6611.09  541722  76670.8  10087.8
    6615.97  543627  77407.9  10215.1
    6620.95  546405  78297.5  10356.9
    6625.85  551168  79445.6  10535.3
    6630.85  553761  80309.2  10672.2
    6635.85  555719  81090.3  10805.6
    6640.87  557754  81880  10943.6
    6645.89  559789  82672.2  11083.1
    6650.92  561671  83475.8  11215.1
    6655.96  564672  84431  11376.6
    6661.1  567592  85384.7  11540.7
    6666.15  568873  86101.9  11663.3
    6671.31  570513  86898.6  11813.4
    6676.47  571752  87613.9  11937.1
    6681.64  574296  88525.5  12092.3
    6686.82  576198  89347.9  12231
    6692.01  576767  89987.6  12348.2
    6697.3  576015  90448.9  12441
    6702.51  557084  88091.7  12141.3
    6707.72  598820  95167  13151.1
    6713.04  593572  94922.8  13149.5
    6718.37  595016  95746.2  13299.4
    6723.7  596893  96633.1  13453.8
    6729.05  597594  97356.5  13594.8
    6734.4  599204  98206.3  13753.3
    6739.77  605048  99752.7  14002.3
    6745.14  606875  100705  14172.8
    6750.61  591564  98735.1  13933.9
    6756  591266  99339  14060.5
    6761.5  601989  101924  14456.6
    6766.91  616498  104911  14929.3
    6772.42  599915  102753  14665.5
    6777.94  623809  107475  15388.2
    6783.48  624955  108370  15552.4
    6789.02  626058  109247  15720.2
    6794.57  627752  110206  15906.5
    6800.23  627322  110800  16030.3
    6805.8  591605  105238  15265.7
    6811.48  647565  115827  16843.6
    6817.07  643947  115916  16903
    6822.77  643550  116585  17045.9
    6828.47  645152  117598  17249.4
    6834.19  647287  118758  17460.4
    6839.92  650115  120036  17695
    6845.66  653576  121417  17936
    6851.4  657902  122994  18216.6
    6857.16  660696  124281  18458.8
    6863.03  662529  125432  18676.4
    6868.81  663434  126405  18864.6
    6874.7  666932  127899  19143.3
    6880.5  671538  129600  19449.6
    6886.41  671016  130301  19610.3
    6892.33  673745  131670  19864.6
    6898.26  677112  133166  20153.5
    6904.2  677531  134114  20336.8
    6910.15  680552  135567  20608.7
    6916.11  682935  136914  20874.1
    6922.09  682740  137742  21063
    6928.18  682967  138668  21257.5
    6934.17  686322  140251  21563.5
    6940.28  687778  141422  21811.1
    6946.3  689360  142631  22055.1
    6952.43  690746  143817  22306.7
    6958.57  692691  145108  22567.8
    6964.62  694041  146327  22805.5
    6970.78  695039  147462  23035.7
    6976.96  695246  148441  23250.4
    6983.15  696143  149535  23486.6
    6989.35  697415  150761  23738.4
    6995.66  698338  151879  23980.7
    7001.88  699370  153033  24216.5
    7008.12  698068  153672  24392.8
    7014.47  695686  154117  24527.8
    7020.72  700192  156054  24900.2
    7027.1  701587  157316  25168.1
    7033.38  702356  158429  25409.6
    7039.77  704690  159939  25715.5
    7046.18  708348  161760  26068.1
    7052.6  710721  163310  26389.1
    7059.04  711559  164498  26651.7
    7065.48  712742  165766  26926.9
    7071.94  714254  167137  27214.5
    7078.41  715794  168496  27515.7
    7084.9  716712  169752  27786.4
    7091.39  718072  171104  28087.6
    7097.9  717448  171980  28297.4
    7104.53  715591  172583  28465.7
    7111.06  713669  173160  28634.5