File: data/Cr/na2cro4_100K_003.xdi
# XDI/1.0
# Column.1: energy eV
# Column.2: i0
# Column.3: itrans
# Column.4: irefer
# Beamline.name: SSRL 2-3
# Beamline.notes: vert slits = 0.6mm
# Detector.I0: N2 15cm
# Detector.I1: N2 30cm
# Detector.I2: N2 15cm
# Element.edge: K
# Element.symbol: Cr
# Mono.d_spacing: 3.13550
# Mono.name: Si(111)
# Mono.notes: unfocused, detuned 75%, clockwise at E=5990eV
# Sample.formula: Na2CrO4
# Sample.name: Na2CrO4
# Sample.prep: powder on tape (5 layers)
# Sample.reference: Cr foil
# Sample.temperature: 100K
# Scan.start_time: 1997-04-18 19:10:23
# ///
#    Note: mono d_spacing is nominal!
#     exafs to K16
#     396  E XMU XMUR I0
#-------------
#   energy   i0   itrans  irefer
    5759.99  218716  15107.7  1930.3
    5769.98  218606  15381.7  1978.3
    5780.01  218482  15652.7  2024.3
    5790  218182  15909.7  2072.3
    5799.97  218138  16195.7  2122.3
    5810.03  217944  16474.7  2172.3
    5820  217663  16736.7  2219.3
    5830  217389  17012.7  2272.3
    5839.97  217233  17299.7  2323.3
    5849.98  216963  17581.7  2376.3
    5860.02  217151  17895.7  2431.3
    5870.02  216761  18176.7  2483.3
    5879.99  216447  18452.7  2539.3
    5890  216196  18754.7  2592.3
    5899.97  215710  19024.7  2647.3
    5909.98  215639  19333.7  2705.3
    5920.02  215313  19632.7  2762.3
    5930.03  214812  19899.7  2816.3
    5939.99  214473  20192.7  2875.3
    5950  214124  20478.7  2931.3
    5959.97  213897  20777.7  2990.3
    5969.97  213383  21043.7  3040.3
    5970.49  213153  21040.7  3042.3
    5971.01  212960  21039.7  3041.3
    5971.53  211934  20953.7  3029.3
    5971.97  210438  20812.7  3010.3
    5972.49  209635  20754.7  3002.3
    5973.01  210844  20891.7  3025.3
    5973.53  212378  21056.7  3049.3
    5973.98  213127  21143.7  3064.3
    5974.5  213627  21212.7  3072.3
    5975.02  213610  21230.7  3073.3
    5975.46  213596  21234.7  3078.3
    5975.98  213772  21268.7  3083.3
    5976.51  213648  21272.7  3084.3
    5977.03  213518  21272.7  3084.3
    5977.47  213719  21315.7  3090.3
    5977.99  213662  21318.7  3090.3
    5978.52  213647  21322.7  3091.3
    5979.04  213883  21373.7  3098.3
    5979.48  213700  21367.7  3100.3
    5980.01  213754  21382.7  3101.3
    5980.53  213723  21394.7  3104.3
    5980.97  213575  21390.7  3103.3
    5981.49  213632  21416.7  3107.3
    5982.02  213888  21461.7  3113.3
    5982.46  213830  21467.7  3113.3
    5982.99  213872  21489.7  3118.3
    5983.51  214176  21533.7  3123.3
    5984.03  214205  21553.7  3125.3
    5984.48  213985  21539.7  3125.3
    5985  214003  21554.7  3125.3
    5985.52  212532  21419.7  3102.3
    5985.97  209348  21107.7  3056.3
    5986.49  201043  20278.7  2934.3
    5987.02  187703  18936.7  2736.3
    5987.46  185545  18728.7  2706.3
    5987.99  195915  19787.7  2853.3
    5988.51  203216  20526.7  2950.3
    5989.03  207310  20952.7  2996.3
    5989.48  209420  21160.7  2998.3
    5990  210269  21236.7  2949.3
    5990.53  210959  21283.7  2867.3
    5990.98  211348  21288.7  2798.3
    5991.5  211494  21232.7  2725.3
    5992.02  211691  21143.7  2667.3
    5992.47  211944  21022.7  2614.3
    5992.99  211705  20701.7  2536.3
    5993.52  211930  20045.7  2424.3
    5993.97  211894  18990.7  2276.3
    5994.49  211995  17667.7  2096.3
    5995.02  211859  17580.7  2068.3
    5995.47  212149  18660.7  2188.3
    5995.99  212053  19952.7  2333.3
    5996.51  212118  20682.7  2417.3
    5996.96  212296  20952.7  2450.3
    5997.49  212115  21083.7  2463.3
    5998.01  212189  21143.7  2453.3
    5998.54  212217  21138.7  2421.3
    5998.99  212138  21065.7  2377.3
    5999.51  212246  20982.7  2321.3
    6000.04  212078  20838.7  2255.3
    6000.49  211594  20673.7  2199.3
    6001.01  210562  20414.7  2127.3
    6001.46  209189  20175.7  2068.3
    6001.99  208568  19992.7  2013.3
    6002.51  209782  19979.7  1983.3
    6002.96  211598  20025.7  1968.3
    6003.49  212073  19915.7  1932.3
    6004.02  212292  19741.7  1896.3
    6004.47  212307  19564.7  1860.3
    6004.99  212112  19319.7  1821.3
    6005.52  212197  19075.7  1780.3
    6005.97  212534  18870.7  1747.3
    6006.5  212400  18576.7  1707.3
    6007.02  212382  18266.7  1661.3
    6007.47  212182  17989.7  1621.3
    6008  211966  17649.7  1575.3
    6008.53  212069  17353.7  1533.3
    6008.98  212009  17106.7  1498.3
    6009.5  211788  16840.7  1462.3
    6010.03  212323  16673.7  1433.3
    6010.94  212505  16390.5  1395.06
    6011.84  212455  16191.7  1389.36
    6012.82  212131  16084.5  1411.18
    6013.8  212477  16102.8  1452.53
    6014.78  212301  16093.6  1478.42
    6015.76  212471  16127.9  1494.83
    6016.81  212861  16170.8  1498.77
    6017.8  212668  16153.1  1486.23
    6018.93  212788  16142  1463.23
    6019.99  213109  16142.4  1449.76
    6021.12  213247  16125.3  1440.82
    6022.18  213608  16123.7  1443.4
    6023.39  213612  16101.6  1451.52
    6024.52  213935  16106  1461.16
    6025.73  214050  16108  1460.33
    6026.87  214182  16137.4  1456.04
    6028.16  214779  16236.4  1450.27
    6029.37  214607  16300.9  1443.03
    6030.58  215211  16418.9  1447.32
    6031.87  215464  16521.4  1448.14
    6033.16  215834  16625.5  1453.49
    6034.53  216314  16724  1462.37
    6035.82  216946  16826  1469.77
    6037.19  217385  16897.6  1473.71
    6038.56  217595  16957.7  1472.18
    6040  217755  17012.3  1470.17
    6041.37  218239  17110.4  1476.7
    6042.82  218691  17236  1490.75
    6044.26  218941  17356.2  1509.33
    6045.71  219567  17498.8  1527.44
    6047.24  220044  17657  1548.08
    6048.76  220430  17780.7  1565.25
    6050.29  221129  17880.8  1585.95
    6051.82  221864  18019.6  1616.18
    6053.42  222411  18181.8  1650.94
    6054.95  222992  18339.5  1683.23
    6056.56  223511  18485.8  1714.04
    6058.24  224099  18631.5  1744.39
    6059.85  224539  18752.8  1764.26
    6061.53  224726  18846.6  1781.66
    6063.22  225405  18973.9  1794.6
    6064.91  226089  19096.7  1800.06
    6066.68  226608  19203  1795.05
    6068.36  227690  19346.9  1790.57
    6070.13  228253  19445.2  1776.62
    6071.9  228931  19551.1  1765.2
    6073.75  229620  19638.5  1766.31
    6075.52  230492  19745.4  1786.94
    6077.37  231474  19873.8  1821.11
    6079.22  232010  19964.7  1856.81
    6081.15  232868  20076.1  1896.03
    6083  234025  20219.1  1934.79
    6084.93  234988  20356.5  1974.07
    6086.87  235757  20489.5  1996.88
    6088.8  236488  20623  1997.22
    6090.81  237536  20795  1983.09
    6092.83  238725  20970.5  1955.49
    6094.84  239843  21147.6  1929.42
    6096.86  240634  21289.1  1899.88
    6098.88  241611  21432.2  1880.87
    6100.98  242660  21598.8  1880.39
    6103.07  243710  21747.8  1901.43
    6105.18  244744  21888.4  1941.01
    6107.28  245778  22016.6  1996.11
    6109.46  246890  22154.2  2057.75
    6111.64  248077  22296.3  2115.91
    6113.83  249450  22472  2168.6
    6116.01  250731  22639.1  2207.82
    6118.28  251709  22794.8  2228.57
    6120.47  252530  22921  2237.85
    6122.74  253799  23108.7  2248.66
    6125.01  255117  23291  2263
    6127.36  256672  23511.7  2292.87
    6129.64  257538  23676.9  2325.26
    6131.99  258625  23868.7  2360.19
    6134.35  259968  24093  2396.64
    6136.79  261331  24319.8  2425.63
    6139.15  262894  24574.1  2448.14
    6141.59  264250  24816.9  2469.19
    6144.04  265338  25031.2  2484.76
    6146.48  266628  25269.1  2502.86
    6148.93  267920  25504.4  2510.49
    6151.46  269390  25757.3  2520.65
    6153.99  270975  26024.7  2539.34
    6156.53  272455  26284.6  2560.55
    6159.06  273867  26547  2573.3
    6161.6  275231  26800.9  2575.58
    6164.22  276656  27073.4  2573.38
    6166.84  278047  27340.3  2586.72
    6169.47  279597  27621.8  2626.58
    6172.1  280883  27891.8  2683.97
    6174.81  282710  28214.3  2755.9
    6177.52  283965  28483.3  2819.35
    6180.23  285595  28782.8  2881.33
    6182.95  287247  29085.8  2937.84
    6185.67  288811  29385.4  2983.88
    6188.47  290270  29684.4  3024.45
    6191.27  292094  30015  3066.54
    6194.08  293524  30301.1  3105.17
    6196.89  295691  30660.7  3156.33
    6199.7  297414  30964.8  3201.01
    6202.6  299190  31288.5  3245.23
    6205.5  300705  31580.6  3282.97
    6208.4  302398  31884.3  3329.24
    6211.3  304051  32187.4  3387.05
    6214.21  305574  32477.1  3435.38
    6217.2  307195  32786.3  3477.24
    6220.2  308937  33100  3503.62
    6223.19  310532  33377.3  3520.54
    6226.19  312294  33719  3537.99
    6229.2  314241  34051.3  3550.97
    6232.28  315825  34364  3556.48
    6235.38  315560  34484.3  3548.51
    6238.47  320383  35148.1  3599.08
    6241.56  313016  34485.4  3518.17
    6244.75  321865  35622.2  3628.79
    6247.85  324347  36048.6  3685.95
    6251.04  326378  36441.4  3759.63
    6254.23  328394  36839.8  3855.84
    6257.43  329717  37143.6  3941.58
    6260.71  332273  37613  4030.85
    6263.91  334331  38027.9  4099.65
    6267.2  335850  38379.4  4146.98
    6270.49  337509  38756.3  4190.83
    6273.79  339760  39199.7  4252.21
    6277.17  341657  39612.7  4313.13
    6280.48  343666  40058.1  4373.57
    6283.86  345595  40486.1  4425.55
    6287.26  347492  40915.6  4476.05
    6290.65  349632  41370.6  4535.08
    6294.06  351539  41803.2  4591.65
    6297.54  353545  42277.2  4663.74
    6300.95  355606  42736.8  4734.36
    6304.45  357600  43205.8  4803.5
    6307.95  359557  43671.4  4864.19
    6311.54  361803  44183.5  4928.39
    6315.05  363637  44623.1  4975.13
    6318.56  365963  45136.2  5027.39
    6322.16  368185  45644.8  5069.19
    6325.77  370056  46126  5118.51
    6329.38  372270  46631.7  5169.37
    6333.07  373905  47079.8  5222.74
    6336.69  376107  47588.5  5284.66
    6340.4  378408  48116.7  5357.11
    6344.11  380517  48633.5  5433.08
    6347.83  382665  49148.7  5513.57
    6351.55  384879  49678.4  5597.6
    6355.27  386958  50196.7  5679.16
    6359.09  389034  50705.4  5766.24
    6362.82  390853  51182.7  5853.85
    6366.65  392983  51712.5  5946.01
    6370.47  395289  52269.8  6035.68
    6374.31  397601  52834.7  6121.89
    6378.23  399943  53406  6200.62
    6382.07  401822  53910.8  6266.88
    6386.01  403812  54466.2  6344.67
    6389.95  406038  55027.1  6425.99
    6393.89  408336  55620.5  6513.84
    6397.84  410584  56207.4  6597.22
    6401.88  412705  56794.8  6676.13
    6405.84  415147  57428.7  6760.57
    6409.89  416824  57959.1  6836.53
    6413.95  419499  58654.1  6935.03
    6418.01  421550  59252.6  7027.06
    6422.08  423817  59883.6  7125.61
    6426.15  425850  60497.1  7211.69
    6430.32  428556  61206.1  7304.31
    6434.4  430930  61892.6  7387.44
    6438.58  433338  62574.6  7474.11
    6442.76  435287  63200.2  7561.32
    6446.95  437462  63853.3  7664.05
    6451.23  439697  64549.9  7779.31
    6455.43  441908  65239  7889.09
    6459.72  444646  66012.6  8014.41
    6463.93  446775  66677.7  8127.26
    6468.24  448992  67413.3  8240.63
    6472.55  451378  68133.5  8349.54
    6476.95  453646  68878.1  8466.97
    6481.28  455778  69577.3  8579.93
    6485.61  457994  70300.1  8691.43
    6490.03  460733  71127.3  8820.45
    6494.46  463150  71918.9  8933.99
    6498.9  464890  72596.2  9031.08
    6503.34  467799  73472  9157.69
    6507.79  469914  74195.2  9272.83
    6512.34  471648  74890  9390.5
    6516.8  474083  75702.2  9529.68
    6521.35  476243  76452.1  9653.42
    6525.92  478259  77210.3  9780.67
    6530.49  480957  78082.2  9917.46
    6535.07  483131  78869.6  10041.8
    6539.65  485552  79715.4  10170.6
    6544.25  486872  80375.8  10273
    6548.94  488882  81146.6  10390.9
    6553.54  490986  81954  10511.3
    6558.24  493635  82845.9  10644.3
    6562.95  495589  83643.4  10776.8
    6567.67  498002  84493.3  10917.8
    6572.4  500291  85337.7  11054.3
    6577.22  502364  86180.8  11192.4
    6581.96  504685  87049.2  11341
    6586.79  506773  87891.2  11485.1
    6591.55  509135  88776.7  11636.8
    6596.4  511136  89628.7  11781
    6601.26  513779  90596.2  11929.7
    6606.12  515932  91485.3  12081
    6611.09  518109  92399.9  12236.8
    6615.97  520319  93298.9  12387.1
    6620.95  522919  94289.5  12541.9
    6625.85  524140  95032.6  12675.3
    6630.85  526636  96020.2  12839.2
    6635.85  528253  96851.3  12986.6
    6640.87  530319  97766  13143.6
    6645.89  532651  98774.1  13314
    6650.92  534445  99669.8  13475.1
    6655.96  536258  100566  13633.6
    6661.1  538781  101626  13806.7
    6666.15  540652  102520  13964.3
    6671.31  542472  103433  14122.4
    6676.47  544722  104455  14298.1
    6681.64  546765  105419  14462.3
    6686.82  548628  106372  14625
    6692.01  549323  107098  14763.2
    6697.3  549269  107699  14884
    6702.51  525955  103868  14383.3
    6707.72  570697  113165  15706.2
    6713.04  565383  112747  15681.5
    6718.37  565044  113286  15797.4
    6723.7  566478  114211  15965.8
    6729.05  567948  115161  16138.8
    6734.4  568014  115848  16276.3
    6739.77  574660  117894  16607.3
    6745.14  572973  118168  16694.8
    6750.61  560063  116011  16442.9
    6756  571634  119253  16938.5
    6761.5  568767  119487  17014.6
    6766.91  582421  122911  17553.3
    6772.42  569874  121012  17328.5
    6777.94  587246  125350  17999.2
    6783.48  588383  126311  18183.4
    6789.02  589183  127216  18365.2
    6794.57  589879  128080  18545.5
    6800.23  587562  128321  18624.3
    6805.8  556640  122266  17791.7
    6811.48  607677  134217  19583.6
    6817.07  605366  134470  19679
    6822.77  605548  135291  19850.9
    6828.47  606542  136302  20052.4
    6834.19  607797  137341  20266.4
    6839.92  609505  138554  20482
    6845.66  611006  139702  20702
    6851.4  612733  140894  20928.6
    6857.16  614447  142079  21159.8
    6863.03  615823  143243  21385.4
    6868.81  617568  144488  21631.6
    6874.7  619202  145735  21857.3
    6880.5  620814  146929  22101.6
    6886.41  622125  148117  22342.3
    6892.33  623964  149419  22596.6
    6898.26  625256  150572  22838.4
    6904.2  627135  151906  23095.8
    6910.15  628690  153189  23348.7
    6916.11  630524  154505  23622.1
    6922.09  630670  155458  23825
    6928.18  632571  156844  24111.5
    6934.17  633494  157979  24353.5
    6940.28  634706  159203  24617.1
    6946.3  635835  160422  24866.1
    6952.43  637428  161745  25141.7
    6958.57  638631  162973  25396.8
    6964.62  640271  164301  25662.5
    6970.78  641640  165602  25936.6
    6976.96  643071  166938  26212.4
    6983.15  644510  168243  26496.6
    6989.35  645952  169573  26770.4
    6995.66  647218  170896  27046.7
    7001.88  648429  172187  27322.5
    7008.12  649233  173371  27577.9
    7014.47  651427  174921  27900.7
    7020.72  652496  176186  28172.1
    7027.1  653640  177497  28447.1
    7033.38  654756  178772  28733.6
    7039.77  656004  180131  29034.6
    7046.18  656823  181376  29307.1
    7052.6  658703  182897  29638.2
    7059.04  660147  184300  29945.8
    7065.48  660473  185414  30193.9
    7071.94  661627  186780  30504.5
    7078.41  663000  188194  30811.7
    7084.9  664312  189623  31128.4
    7091.39  665723  191084  31443.6
    7097.9  666362  192289  31725.4
    7104.53  667037  193561  32013.7
    7111.06  667402  194731  32302.5