File: data/Ni/Ni2O3_rt_01.xdi
# XDI/1.0
# Column.1: energy eV
# Column.2: i0
# Column.3: itrans
# Column.4: irefer
# Beamline.name: SSRL 4-1
# Detector.I0: N2 15cm
# Detector.I1: N2 30cm
# Detector.I2: N2 15cm
# Element.edge: K
# Element.symbol: Ni
# Mono.d_spacing: 3.13550
# Mono.name: Si(111)
# Mono.notes: unfocused, detuned 25%,counter clockwise
# Sample.formula: Ni2O3
# Sample.name: Ni2O3
# Sample.prep: powder, mixed 1:100 with B(OH)3 by wt
# Sample.reference: none
# Sample.temperature: room temperature
# Scan.start_time: 1997-01-17 17:59:41
# ///
#    Note: mono d_spacing is nominal!
#     exafs to K17
#     435  E XMU XMUR I0
#-------------
#   energy   i0   itrans  irefer
    8110  289576  186931  578508
    8120  289402  188117  580851
    8130  288842  189064  583670
    8140  288546  190180  587379
    8150  288350  191389  591459
    8160  288075  192542  595876
    8170  287301  193358  600538
    8180  287293  194683  606489
    8190  286918  195786  611992
    8200  286469  196825  617454
    8210  285902  197765  623265
    8220  285686  198943  629703
    8230  285439  200150  636113
    8240  284968  201139  642427
    8250  284449  202138  648640
    8260  283602  202854  654071
    8270  283378  204033  660818
    8280  281574  204054  664879
    8290  281510  205313  671415
    8300  279148  204906  675087
    8310  281485  207754  681141
    8310.5  281796  208023  682464
    8311  281731  208051  682860
    8311.5  281893  208232  683581
    8312  281498  207999  683206
    8312.5  281455  208028  683564
    8313  281555  208147  683996
    8313.5  281138  207907  683389
    8314  281375  208129  683964
    8314.5  280999  207913  683442
    8315  281001  207976  683516
    8315.5  281072  208071  683719
    8316  281303  208294  684286
    8316.5  281281  208329  683874
    8317  281742  208713  684445
    8317.5  281644  208689  684102
    8318  281493  208623  683931
    8318.5  281512  208690  683785
    8319  281389  208640  683394
    8319.5  281326  208659  682834
    8320  281196  208586  682164
    8320.5  280563  208146  680633
    8321  279794  207621  678636
    8321.5  278495  206711  675632
    8322  277183  205754  672436
    8322.5  275832  204803  669514
    8323  274128  203559  665949
    8323.5  272719  202564  663241
    8324  271173  201436  660110
    8324.5  270256  200799  658322
    8325  270193  200754  657195
    8325.5  270018  200642  655840
    8326  270768  201214  655572
    8326.5  272467  202509  656163
    8327  273846  203556  656231
    8327.5  276268  205388  656870
    8328  277651  206432  655221
    8328.5  279343  207694  652460
    8329  281397  209182  648535
    8329.5  282362  209838  641965
    8330  283156  210260  630786
    8330.5  283088  210145  616949
    8331  283439  210198  599168
    8331.5  283333  209909  579411
    8332  283398  209747  560343
    8332.5  283171  209412  540541
    8333  282604  208818  522066
    8333.5  282779  208746  490745
    8334  283094  208760  450215
    8334.5  282317  207956  407726
    8335  282090  207533  373003
    8335.5  281993  207096  346829
    8336  281904  206431  322895
    8336.5  281852  205658  305917
    8337  281740  204538  289958
    8337.5  281413  203052  276342
    8338  281498  201525  263378
    8338.5  281600  199441  249219
    8339  281509  197107  236189
    8339.5  281356  194025  221196
    8340  281353  191108  208065
    8340.5  281056  187260  193287
    8341  281368  183481  179237
    8341.5  281913  179846  166519
    8342  281794  175223  152361
    8342.5  281748  171094  140261
    8343  282024  166315  126694
    8343.5  282123  161529  114293
    8344  282911  156744  102139
    8344.5  282560  150939  89664.1
    8345  282634  145837  79431.1
    8345.5  282624  139827  68535.1
    8346  282609  134427  59836.1
    8346.5  282571  128811  51719.1
    8347  282613  124016  45477.1
    8347.5  283031  119857  40503.1
    8348  283076  115518  36077.1
    8348.5  282646  111994  33058.1
    8349  282874  108956  30688.1
    8349.5  282723  106741  29239.1
    8350  282513  105158  28315.1
    8350.5  282648  104611  28000.1
    8351  282614  105074  28155.1
    8351.5  282480  106690  28750.1
    8352  282044  108771  29493.1
    8352.5  282347  111973  30550.1
    8353  282194  115231  31533.1
    8353.5  282414  118558  32412.1
    8354  282209  121758  33053.1
    8354.5  282156  124351  33392.1
    8355  282487  127283  33576.1
    8355.5  282174  129453  33448.1
    8356  281990  131640  33184.1
    8356.5  282168  133876  32939.1
    8357  282150  135870  32733.1
    8357.5  282421  138342  32721.1
    8358  282124  140312  32819.1
    8358.5  282198  142598  33211.1
    8359  282382  144707  33751.1
    8359.5  282434  146544  34413.1
    8360  282232  148080  35174.1
    8360.5  282076  149089  35857.1
    8361  281794  149669  36541.1
    8361.5  282048  150060  37144.1
    8362  281965  149874  37645.1
    8362.5  282350  149494  38175.1
    8363  282702  148886  38590.1
    8363.5  282274  147569  38895.1
    8364  282409  146583  39211.1
    8364.5  282423  145387  39558.1
    8365  282401  144346  39901.1
    8365.5  282664  143656  40316.1
    8366  282337  142907  40669.1
    8366.5  282430  142715  41039.1
    8367  282596  142832  41502.1
    8367.5  282313  142951  41805.1
    8368  282400  143476  42216.1
    8368.5  282476  144120  42558.1
    8369  282576  144789  42857.1
    8369.5  283028  145748  43206.1
    8370  282752  146227  43311.1
    8370.88  282691  147287  43389.1
    8371.78  282655  148243  43141.1
    8372.71  282629  149164  42552.1
    8373.65  282432  150015  41681.1
    8374.6  282782  151188  40592.1
    8375.58  282896  152077  39269.1
    8376.58  282714  152488  37763.1
    8377.6  282833  152700  36169.1
    8378.64  282327  152152  34463.1
    8379.69  282255  151412  32899
    8380.76  282558  150600  31686.1
    8381.85  282230  149301  30769
    8382.97  282216  148241  30463
    8384.1  282844  147645  30808
    8385.25  282603  146751  31560
    8386.42  283234  146255  32872
    8387.61  282976  144974  34295
    8388.81  283069  143397  35756
    8390.04  282804  141136  37020
    8391.28  283170  139008  38123.9
    8392.55  283318  136911  38976.9
    8393.83  283506  135194  39639.9
    8395.13  283482  133849  39960.9
    8396.46  283525  132843  40006.8
    8397.8  283611  132173  39892.8
    8399.16  284101  131989  39914.8
    8400.54  284232  132143  40142.8
    8401.94  284406  133050  40706.8
    8403.35  284189  134442  41316.7
    8404.78  284160  136290  41828.7
    8406.24  284358  138391  42130.7
    8407.72  284527  140553  42155.7
    8409.21  284463  142640  42055.6
    8410.72  284911  144784  42073.6
    8412.25  284979  146548  41997.6
    8413.81  285147  148333  41743.5
    8415.38  285214  149957  41199.5
    8416.96  285539  151441  40494.5
    8418.57  285611  152471  39661.4
    8420.2  286078  153372  38837.4
    8421.84  286165  153647  37827.4
    8423.51  286207  153495  36616.3
    8425.19  286715  153163  35256.3
    8426.89  287128  152544  33868.3
    8428.62  286984  151566  32544.2
    8430.36  287071  150950  31686.2
    8432.12  287856  151080  31534.2
    8433.9  288372  151311  31985.1
    8435.7  288026  151143  32879.1
    8437.51  288703  151488  34354
    8439.35  289021  151531  35969
    8441.21  289174  151239  37736
    8443.08  289492  150677  39452.9
    8444.97  289611  149668  40900.9
    8446.89  289840  148748  42046.8
    8448.82  290443  148427  43347.8
    8450.77  290549  148482  45227.7
    8452.74  290732  149198  47666.7
    8454.73  291313  150613  50505.6
    8456.74  291364  152208  52980.5
    8458.77  291404  154097  54692.5
    8460.81  292112  156529  55580.5
    8462.88  292559  158706  55412.4
    8464.96  292590  160234  54334.4
    8467.07  293201  161241  52665.3
    8469.19  293609  160961  50559.3
    8471.33  294021  159693  48500.2
    8473.49  294132  157740  46854.1
    8475.67  294401  155940  46026.1
    8477.87  295070  155088  46123
    8480.09  295602  155146  46622.9
    8482.33  295627  155863  46816.9
    8484.58  296013  157261  46054.8
    8486.85  296003  158441  43917.8
    8489.15  296937  159678  41167.7
    8491.47  297164  159891  38584.6
    8493.8  297224  159586  36727.6
    8496.15  297906  159469  35819.5
    8498.52  297713  158883  35365.4
    8500.91  297884  158627  35387.4
    8503.32  298749  159024  36121.3
    8505.75  299910  159981  37733.2
    8508.19  299438  160453  40112.1
    8510.66  300349  162073  43693.1
    8513.15  300375  163608  48260
    8515.65  300763  165684  53912.9
    8518.17  301381  168189  60140.9
    8520.71  301955  170754  65886.8
    8523.27  302474  173129  69710.7
    8525.86  302819  174927  70714.6
    8528.46  303165  175969  69029.6
    8531.07  304046  176356  65714.5
    8533.71  303953  175279  61650.4
    8536.37  304693  174081  58124.3
    8539.04  305217  172584  55385.3
    8541.74  305742  171334  53663.1
    8544.45  306112  170359  52962.1
    8547.19  306278  169763  53020
    8549.93  306970  169991  53709.9
    8552.71  307338  170496  54599.8
    8555.5  307602  171225  55711.8
    8558.31  308330  172374  57274.6
    8561.14  309438  173778  58927.6
    8563.99  309808  174818  59604.5
    8566.85  310278  175860  58774.4
    8569.74  310680  176721  56675.3
    8572.64  311604  177798  54437.2
    8575.57  311799  178527  52707.1
    8578.51  312449  179647  51781
    8581.47  312634  180560  51427.9
    8584.45  313250  181648  51882.8
    8587.45  313929  182581  53154.8
    8590.47  314501  183205  55393.6
    8593.51  314845  183664  58452.5
    8596.57  315171  184347  62215.5
    8599.64  316154  185759  66281.4
    8602.74  316490  187025  69817.3
    8605.85  317282  188570  72589.2
    8608.99  317320  189434  74033.1
    8612.14  318387  190671  74736
    8615.31  318477  190994  74780.9
    8618.5  318523  191066  74841.7
    8621.72  317738  190438  74721.6
    8624.94  319953  191510  75317.5
    8628.19  319107  190652  75078.4
    8631.45  322690  192526  75669.3
    8634.74  323135  192635  75123.2
    8638.05  323265  192817  74316.1
    8641.37  323662  193352  73603
    8644.71  324599  194333  73263.9
    8648.08  325156  195209  73064.8
    8651.46  325994  196496  73240.7
    8654.86  326572  198018  73511.5
    8658.28  326774  199675  73698.4
    8661.72  327920  201837  73949.3
    8665.17  328442  203252  73738.2
    8668.65  328543  203992  73393.1
    8672.15  329468  204880  73783
    8675.66  330359  205588  74886.9
    8679.19  330570  205939  76543.7
    8682.75  330875  206497  78736.6
    8686.32  331433  207438  81326.5
    8689.92  331768  208351  83771.4
    8693.52  333368  209904  85822.2
    8697.16  333985  210505  86645.1
    8700.81  334780  211044  86924
    8704.47  335389  211458  87353.9
    8708.16  335794  211777  88520.7
    8711.86  336512  212302  90723.6
    8715.58  337159  212805  93212.5
    8719.34  337580  213326  94923.4
    8723.1  338202  214236  95778.2
    8726.88  338880  215430  96497.1
    8730.68  339931  216976  97442
    8734.5  340760  218506  98207.8
    8738.34  341131  219938  98755.7
    8742.2  341806  221833  99404.6
    8746.08  342673  223777  100009
    8749.97  343329  225225  100321
    8753.89  344323  226440  100573
    8757.82  345082  227127  100583
    8761.77  345789  227644  100604
    8765.75  346554  228288  100751
    8769.74  347103  229091  100989
    8773.75  347945  230322  101527
    8777.78  348473  231403  102315
    8781.83  349521  232725  103609
    8785.9  349852  233615  105276
    8789.99  350365  234639  107556
    8794.09  351671  236167  110262
    8798.22  352233  237073  112470
    8802.36  352947  238013  114145
    8806.53  353568  238952  115331
    8810.7  354150  239824  116144
    8814.91  354821  240584  116874
    8819.13  355118  241048  117605
    8823.37  355884  241960  118890
    8827.63  351047  239349  118892
    8831.91  356061  243639  122604
    8836.2  357467  245457  124982
    8840.52  353019  243250  124917
    8844.85  362103  250416  129529
    8849.21  362279  251439  131122
    8853.59  362619  252612  132747
    8857.97  363609  254240  134435
    8862.38  364158  255533  135662
    8866.82  364553  256624  136477
    8871.27  365667  258043  137240
    8875.74  366606  259281  137786
    8880.22  367679  260751  138314
    8884.73  367766  261624  138364
    8889.26  369089  263365  138935
    8893.8  369992  264767  139594
    8898.37  370514  265778  140631
    8902.95  371087  266706  142346
    8907.55  371993  267741  144797
    8912.17  373069  268769  147508
    8916.81  373776  269653  149923
    8921.47  374781  271070  152279
    8926.15  375517  272591  154434
    8930.85  376123  274195  156515
    8935.57  376043  275281  158150
    8940.3  377492  277320  160276
    8945.06  377971  278456  161862
    8949.83  379006  279906  163764
    8954.62  380210  281529  165873
    8959.43  380964  282953  167813
    8964.26  381536  284392  169904
    8969.12  382582  286161  172357
    8973.98  384089  288155  174988
    8978.87  384012  288820  176599
    8983.78  385540  290682  178862
    8988.71  385800  291658  180417
    8993.65  386631  293090  182130
    8998.61  387332  294429  183769
    9003.6  388172  295884  185492
    9008.6  388535  296977  186917
    9013.63  389781  298746  188629
    9018.67  390665  300181  190155
    9023.73  391446  301446  191784
    9028.8  392850  303327  193992
    9033.9  393072  304433  195885
    9039.02  393935  306167  198262
    9044.16  394439  307615  200498
    9049.31  395819  309716  203333
    9054.49  396412  311129  205854
    9059.68  396057  311771  207912
    9064.89  397397  313719  210802
    9070.12  397760  314859  213058
    9075.38  398981  316642  215685
    9080.65  399177  317717  217964
    9085.93  399217  318849  220390
    9091.24  401221  321534  223812
    9096.57  403244  324221  227202
    9101.91  401341  323684  228388
    9107.28  404004  326849  232279
    9112.66  404959  328613  235166
    9118.07  406686  330962  238553
    9123.49  407621  332680  241516
    9128.93  407018  333135  243423
    9134.39  408721  335424  246504
    9139.87  409710  337053  249007
    9145.37  411079  338956  251569
    9150.89  411911  340493  253871
    9156.43  412938  342355  256535
    9161.98  413341  343809  258926
    9167.56  414460  345874  261996
    9173.15  414527  347053  264581
    9178.76  415907  349363  268169
    9184.4  417376  351666  271697
    9190.05  417761  353053  274419
    9195.72  418644  354898  277451
    9201.41  418954  356265  280173
    9207.11  420473  358667  283779
    9212.84  420799  359992  286714
    9218.59  422021  362114  290402
    9224.35  423267  364261  294243
    9230.13  423709  365753  297567
    9235.94  424652  367668  301278
    9241.76  423369  367637  303304
    9247.61  425669  370686  307891
    9253.47  427331  373188  312057
    9259.35  428495  375308  315970
    9265.25  426975  375051  317859
    9271.17  429817  378640  322990
    9277.1  430865  380673  326809
    9283.06  431930  382802  330697
    9289.03  433011  384949  334608
    9295.03  433837  386848  338213
    9301.04  435011  389032  342040
    9307.08  435390  390514  345297
    9313.13  435688  391948  348581
    9319.2  436358  393761  352244
    9325.29  437596  396046  356415
    9331.4  438557  398150  360500
    9337.52  439795  400486  364820
    9343.67  440215  402088  368584
    9349.84  441511  404512  373168
    9356.02  442052  406244  377170
    9362.23  443123  408435  381638
    9368.45  443179  409680  385244
    9374.69  444104  411784  389681
    9380.95  445220  414093  394311
    9387.24  446080  416170  398856
    9393.53  447161  418415  403624
    9399.86  447661  420095  407900
    9406.19  448689  422268  412666
    9412.55  449517  424328  417412
    9418.92  450820  426876  422699
    9425.32  450611  427976  426661
    9431.74  451842  430656  431326
    9438.17  452951  432758  437166
    9444.62  454211  435280  442594
    9451.09  455287  437595  447897