File: data/Ni/Ni2O3_rt_02.xdi
# XDI/1.0
# Column.1: energy eV
# Column.2: i0
# Column.3: itrans
# Column.4: irefer
# Beamline.name: SSRL 4-1
# Detector.I0: N2 15cm
# Detector.I1: N2 30cm
# Detector.I2: N2 15cm
# Element.edge: K
# Element.symbol: Ni
# Mono.d_spacing: 3.13550
# Mono.name: Si(111)
# Mono.notes: unfocused, detuned 25%,counter clockwise
# Sample.formula: Ni2O3
# Sample.name: Ni2O3
# Sample.prep: powder, mixed 1:100 with B(OH)3 by wt
# Sample.reference: none
# Sample.temperature: room temperature
# Scan.start_time: 1997-01-17 17:59:41
# ///
#    Note: mono d_spacing is nominal!
#     exafs to K17
#     435  E XMU XMUR I0
#-------------
#   energy   i0   itrans  irefer
    8110  296265  191684  532538
    8120  296356  193082  541766
    8130  296820  194726  551205
    8140  296023  195557  559112
    8150  295731  196732  567187
    8160  295585  197999  575507
    8170  295297  199177  583931
    8180  294860  200264  592272
    8190  294760  201608  600884
    8200  294287  202552  608729
    8210  293938  203786  617121
    8220  293383  204776  624934
    8230  293240  206050  633697
    8240  293028  207289  641933
    8250  292534  208308  649837
    8260  292162  209456  657858
    8270  291685  210478  665447
    8280  289379  210156  669108
    8290  289737  211765  678430
    8300  288448  212195  685097
    8310  290068  214559  690792
    8310.5  290420  214864  692483
    8311  290302  214851  693118
    8311.5  289941  214644  693209
    8312  289768  214554  693641
    8312.5  289931  214740  694604
    8313  289492  214466  694396
    8313.5  289255  214363  694552
    8314  289404  214531  695447
    8314.5  289243  214465  695536
    8315  288966  214306  695361
    8315.5  289277  214592  696086
    8316  289420  214751  696611
    8316.5  289771  215059  697616
    8317  290013  215319  698369
    8317.5  289762  215169  697902
    8318  289833  215261  698221
    8318.5  289335  214944  697137
    8319  289279  214942  696967
    8319.5  288916  214719  695976
    8320  288741  214639  695384
    8320.5  288012  214133  693544
    8321  286814  213276  690789
    8321.5  285369  212264  687417
    8322  283765  211094  683758
    8322.5  282474  210191  680845
    8323  280730  208924  677026
    8323.5  279147  207764  673686
    8324  277955  206903  670883
    8324.5  277189  206363  668663
    8325  277239  206392  667491
    8325.5  277638  206694  666746
    8326  278691  207503  666907
    8326.5  280326  208756  667573
    8327  282205  210214  668558
    8327.5  284182  211703  668065
    8328  286110  213138  666700
    8328.5  287772  214358  663177
    8329  289147  215339  656564
    8329.5  289892  215781  646916
    8330  290549  216167  631729
    8330.5  290184  215731  612745
    8331  290762  215927  589844
    8331.5  290171  215292  564208
    8332  289929  214920  540478
    8332.5  289881  214700  517358
    8333  289647  214357  498193
    8333.5  289666  214139  470036
    8334  289251  213610  432898
    8334.5  289020  213163  395543
    8335  289079  212904  364808
    8335.5  288794  212231  341334
    8336  288549  211305  319499
    8336.5  288474  210377  303828
    8337  288359  209053  288539
    8337.5  287857  207240  274894
    8338  288057  205539  261774
    8338.5  287686  202798  246629
    8339  287912  200439  233522
    8339.5  287494  196857  217792
    8340  287774  193847  204676
    8340.5  288270  190177  190514
    8341  287750  185640  175605
    8341.5  287876  181555  162504
    8342  288021  176884  148310
    8342.5  288002  172570  136044
    8343  287951  167265  122071
    8343.5  288538  162499  109784
    8344  288583  157001  97250.1
    8344.5  288700  151234  85196.1
    8345  288584  145882  75176.1
    8345.5  288774  139790  64747.1
    8346  288907  134450  56614.1
    8346.5  289142  129062  49207.1
    8347  288919  124309  43510.1
    8347.5  288803  120070  38968.1
    8348  288819  115900  35073.1
    8348.5  288604  112705  32518.1
    8349  288577  109911  30571.1
    8349.5  288565  108135  29478.1
    8350  288522  107124  28914.1
    8350.5  288182  107077  28829.1
    8351  288295  108224  29276.1
    8351.5  288402  110569  30141.1
    8352  288046  113091  30950.1
    8352.5  288044  116446  32035.1
    8353  288045  119869  32994.1
    8353.5  287906  123038  33705.1
    8354  287854  126236  34224.1
    8354.5  288135  128859  34448.1
    8355  287879  131442  34422.1
    8355.5  287873  133702  34241.1
    8356  287841  135939  33992.1
    8356.5  287689  138086  33684.1
    8357  287710  140146  33577.1
    8357.5  288026  142710  33710.1
    8358  287679  144693  33920.1
    8358.5  287812  147001  34408.1
    8359  287950  149007  35056.1
    8359.5  287648  150522  35744.1
    8360  287710  151993  36567.1
    8360.5  287704  152853  37251.1
    8361  287686  153319  37925.1
    8361.5  287906  153433  38509.1
    8362  287798  152993  38988.1
    8362.5  287757  152182  39393.1
    8363  287860  151272  39745.1
    8363.5  287524  149882  40037.1
    8364  287615  148859  40362.1
    8364.5  287874  147815  40778.1
    8365  287787  146844  41120.1
    8365.5  287655  146086  41480.1
    8366  287767  145733  41930.1
    8366.5  287847  145711  42338.1
    8367  287919  145956  42734.1
    8367.5  287881  146335  43096.1
    8368  287628  146779  43423.1
    8368.5  287830  147547  43805.1
    8369  287583  148050  44006.1
    8369.5  287836  148919  44282.1
    8370  287828  149524  44383.1
    8370.88  287655  150487  44332.1
    8371.78  287446  151359  43936.1
    8372.71  288000  152611  43345.1
    8373.65  287595  153355  42373.1
    8374.6  287530  154298  41101.1
    8375.58  287770  155197  39717.1
    8376.58  288053  155770  38223.1
    8377.6  288182  155846  36572.1
    8378.64  288215  155429  34924.1
    8379.69  287818  154402  33363.1
    8380.76  288052  153493  32222
    8381.85  287674  152137  31453
    8382.97  288008  151286  31354
    8384.1  287976  150373  31751
    8385.25  287792  149489  32673
    8386.42  288105  148772  34046
    8387.61  287911  147394  35504
    8388.81  288207  145759  36988
    8390.04  287938  143363  38190.9
    8391.28  288359  141228  39286.9
    8392.55  288461  139163  40090.9
    8393.83  288430  137418  40668.9
    8395.13  288465  136175  40921.9
    8396.46  288504  135238  40903.8
    8397.8  288683  134649  40813.8
    8399.16  288964  134446  40817.8
    8400.54  288854  134637  41089.8
    8401.94  289145  135787  41711.8
    8403.35  289222  137467  42421.7
    8404.78  289319  139441  42893.7
    8406.24  289448  141574  43107.7
    8407.72  289811  143862  43126.7
    8409.21  289612  145902  43015.6
    8410.72  290315  148189  43085.6
    8412.25  290013  149763  42889.6
    8413.81  290097  151516  42575.5
    8415.38  290680  153406  42055.5
    8416.96  290378  154518  41206.5
    8418.57  290549  155560  40390.5
    8420.2  291200  156469  39543.4
    8421.84  291291  156692  38507.4
    8423.51  291545  156542  37264.3
    8425.19  291817  156009  35800.3
    8426.89  292385  155432  34463.3
    8428.62  292077  154369  33128.2
    8430.36  292138  153817  32363.2
    8432.12  292840  153938  32299.2
    8433.9  292515  153766  32759.1
    8435.7  292929  153996  33864.1
    8437.51  293249  154133  35361
    8439.35  293557  154152  37015
    8441.21  293825  153837  38829.9
    8443.08  294094  153170  40529.9
    8444.97  294317  152178  41968.8
    8446.89  294259  151124  43064.8
    8448.82  294979  150948  44461.8
    8450.77  295203  151194  46494.7
    8452.74  295524  152069  49093.7
    8454.73  295579  153315  51854.6
    8456.74  295967  155169  54358.6
    8458.77  295997  157101  55936.5
    8460.81  296677  159556  56667.5
    8462.88  296970  161663  56336.4
    8464.96  297156  163198  55155.4
    8467.07  297162  163679  53268.3
    8469.19  297931  163447  51166.2
    8471.33  298270  162003  49114.2
    8473.49  298641  160131  47568.1
    8475.67  298831  158345  46878.1
    8477.87  299410  157544  47022
    8480.09  299399  157474  47448
    8482.33  299899  158547  47631.9
    8484.58  300324  160002  46705.8
    8486.85  300671  161352  44434.8
    8489.15  300933  162170  41535.7
    8491.47  301565  162524  39008.6
    8493.8  301955  162340  37326.6
    8496.15  302467  162119  36488.5
    8498.52  303057  161959  36185.4
    8500.91  303069  161631  36243.4
    8503.32  303532  161873  37047.3
    8505.75  304001  162510  38692.2
    8508.19  304219  163424  41304.2
    8510.66  304627  164824  45007.1
    8513.15  305378  166842  49906
    8515.65  305701  168946  55730.9
    8518.17  306112  171369  61993.9
    8520.71  306528  173898  67672.8
    8523.27  307153  176333  71261.7
    8525.86  307029  177800  71784.6
    8528.46  307604  178867  69886.6
    8531.07  308272  179055  66377.5
    8533.71  308893  178282  62424.4
    8536.37  309454  176897  58911.4
    8539.04  309600  175169  56118.2
    8541.74  310062  173906  54469.1
    8544.45  310300  172882  53819.1
    8547.19  311113  172700  54080
    8549.93  311792  172961  54801.9
    8552.71  311992  173408  55687.8
    8555.5  312458  174305  56916.7
    8558.31  313130  175401  58534.7
    8561.14  313592  176490  60012.5
    8563.99  314444  177815  60664.5
    8566.85  314634  178654  59648.4
    8569.74  315083  179579  57423.3
    8572.64  315666  180467  55102.2
    8575.57  316455  181567  53563.1
    8578.51  316870  182573  52646
    8581.47  317101  183521  52347.9
    8584.45  317558  184508  52820.8
    8587.45  318318  185478  54218.8
    8590.47  318798  186048  56586.7
    8593.51  319189  186554  59734.5
    8596.57  319775  187415  63674.4
    8599.64  320522  188730  67723.4
    8602.74  321072  190152  71295.3
    8605.85  321535  191502  73928.2
    8608.99  321617  192377  75290.1
    8612.14  322438  193456  75907.9
    8615.31  322961  194039  76038.9
    8618.5  322902  194011  76071.7
    8621.72  322102  193348  75946.6
    8624.94  323912  194172  76428.5
    8628.19  323645  193657  76333.4
    8631.45  326314  194990  76640.3
    8634.74  326929  195230  76126.2
    8638.05  327627  195747  75418.1
    8641.37  328018  196316  74738
    8644.71  328734  197158  74330.9
    8648.08  329291  198070  74175.8
    8651.46  329725  199147  74260.7
    8654.86  330619  200933  74645.5
    8658.28  331617  203109  75011.4
    8661.72  331937  204734  75003.4
    8665.17  332147  205959  74717.2
    8668.65  332922  207084  74552.1
    8672.15  333823  207935  74986.9
    8675.66  334245  208351  76054.8
    8679.19  335134  209140  77930.7
    8682.75  335703  209899  80271.6
    8686.32  336231  210863  82910.5
    8689.92  336317  211605  85253.4
    8693.52  337454  212836  87123.3
    8697.16  338286  213558  87959.1
    8700.81  338804  213911  88147
    8704.47  339557  214437  88669.9
    8708.16  340082  214844  89964.8
    8711.86  341012  215503  92298.6
    8715.58  341707  216040  94819.5
    8719.34  341586  216245  96301.4
    8723.1  342697  217485  97268.2
    8726.88  343382  218694  98014.1
    8730.68  344183  220090  98907
    8734.5  344634  221393  99544.8
    8738.34  345526  223209  100243
    8742.2  346264  225173  100921
    8746.08  347051  227058  101478
    8749.97  347629  228444  101782
    8753.89  348387  229483  101935
    8757.82  349027  230097  101915
    8761.77  349765  230625  101965
    8765.75  350649  231379  102134
    8769.74  350881  231990  102270
    8773.75  352414  233678  103076
    8777.78  352552  234514  103740
    8781.83  353537  235835  105084
    8785.9  354287  236993  106916
    8789.99  354878  238081  109281
    8794.09  355323  239038  111738
    8798.22  356332  240220  114068
    8802.36  357048  241188  115749
    8806.53  357228  241820  116768
    8810.7  358342  243048  117754
    8814.91  358900  243738  118430
    8819.13  359402  244320  119278
    8823.37  359786  245004  120459
    8827.63  355130  242534  120578
    8831.91  360898  247388  124599
    8836.2  361067  248374  126533
    8840.52  357512  246759  126776
    8844.85  365550  253214  131027
    8849.21  366556  254853  132971
    8853.59  366773  255932  134557
    8857.97  367576  257454  136175
    8862.38  368716  259172  137643
    8866.82  369042  260233  138434
    8871.27  370091  261600  139138
    8875.74  370619  262549  139525
    8880.22  371532  263916  139965
    8884.73  372046  265120  140194
    8889.26  372694  266382  140496
    8893.8  373725  267880  141249
    8898.37  374914  269382  142596
    8902.95  375198  270115  144272
    8907.55  375985  271036  146724
    8912.17  377075  272080  149460
    8916.81  377665  272883  151835
    8921.47  378012  273887  153930
    8926.15  379599  276020  156432
    8930.85  380355  277754  158602
    8935.57  380348  278913  160296
    8940.3  381393  280671  162260
    8945.06  382128  281987  163961
    8949.83  383265  283536  165953
    8954.62  383964  284805  167836
    8959.43  385649  286959  170275
    8964.26  386148  288319  172318
    8969.12  387172  290070  174805
    8973.98  387450  291150  176858
    8978.87  388442  292630  178985
    8983.78  389599  294205  181073
    8988.71  389624  295031  182528
    8993.65  390592  296566  184319
    8998.61  391604  298155  186136
    9003.6  392557  299709  187916
    9008.6  393183  301019  189493
    9013.63  394115  302536  191038
    9018.67  395128  304065  192661
    9023.73  395490  305048  194091
    9028.8  396614  306691  196164
    9033.9  397896  308655  198660
    9039.02  398234  310012  200795
    9044.16  398988  311667  203189
    9049.31  400091  313536  205916
    9054.49  400629  314919  208438
    9059.68  400974  316143  210919
    9064.89  401295  317324  213280
    9070.12  402633  319216  216064
    9075.38  403568  320787  218556
    9080.65  403092  321345  220516
    9085.93  402971  322335  222850
    9091.24  405536  325502  226638
    9096.57  407139  327846  229828
    9101.91  405595  327599  231216
    9107.28  408436  330933  235241
    9112.66  408771  332185  237815
    9118.07  411192  335122  241622
    9123.49  411439  336310  244205
    9128.93  411593  337385  246590
    9134.39  413091  339514  249567
    9139.87  414265  341299  252167
    9145.37  415239  342891  254509
    9150.89  415992  344361  256799
    9156.43  417070  346302  259526
    9161.98  418089  348260  262346
    9167.56  418545  349803  265015
    9173.15  419750  351957  268372
    9178.76  420253  353522  271391
    9184.4  421316  355521  274713
    9190.05  422201  357341  277795
    9195.72  422585  358774  280528
    9201.41  423292  360516  283537
    9207.11  424042  362273  286678
    9212.84  425172  364285  290172
    9218.59  425936  366011  293583
    9224.35  426630  367703  297077
    9230.13  428147  370142  301203
    9235.94  428442  371478  304416
    9241.76  427326  371609  306618
    9247.61  430436  375383  311821
    9253.47  431138  377080  315349
    9259.35  431053  378089  318353
    9265.25  430959  379106  321299
    9271.17  434565  383360  327042
    9277.1  436655  386348  331674
    9283.06  436169  387105  334443
    9289.03  436835  388881  338024
    9295.03  437441  390566  341474
    9301.04  439011  393154  345678
    9307.08  439646  394841  349125
    9313.13  440043  396399  352552
    9319.2  440974  398426  356437
    9325.29  442215  400759  360677
    9331.4  442736  402480  364430
    9337.52  443182  404103  368142
    9343.67  444610  406635  372794
    9349.84  445446  408653  377013
    9356.02  446622  410951  381564
    9362.23  446934  412455  385428
    9368.45  447413  414136  389457
    9374.69  449047  416890  394522
    9380.95  449523  418613  398640
    9387.24  450274  420595  403100
    9393.53  451321  422831  407918
    9399.86  452088  424770  412452
    9406.19  452809  426648  416975
    9412.55  453045  428176  421189
    9418.92  454708  431074  426890
    9425.32  455418  433033  431744
    9431.74  456016  435202  435871
    9438.17  457352  437496  441974
    9444.62  458701  440056  447495
    9451.09  458865  441531  451954