File: data/Ni/Ni2O3_rt_03.xdi
# XDI/1.0
# Column.1: energy eV
# Column.2: i0
# Column.3: itrans
# Column.4: irefer
# Beamline.name: SSRL 4-1
# Detector.I0: N2 15cm
# Detector.I1: N2 30cm
# Detector.I2: N2 15cm
# Element.edge: K
# Element.symbol: Ni
# Mono.d_spacing: 3.13550
# Mono.name: Si(111)
# Mono.notes: unfocused, detuned 25%,counter clockwise
# Sample.formula: Ni2O3
# Sample.name: Ni2O3
# Sample.prep: powder, mixed 1:100 with B(OH)3 by wt
# Sample.reference: none
# Sample.temperature: room temperature
# Scan.start_time: 1997-01-17 17:59:41
# ///
#    Note: mono d_spacing is nominal!
#     exafs to K17
#     435  E XMU XMUR I0
#-------------
#   energy   i0   itrans  irefer
    8110  298434  193427  535233
    8120  298345  194703  544527
    8130  298653  196269  553926
    8140  298400  197485  562761
    8150  298133  198681  571126
    8160  297785  199850  579474
    8170  297738  201195  588432
    8180  297200  202219  596666
    8190  296571  203189  604688
    8200  296478  204454  613440
    8210  296045  205611  621562
    8220  295814  206844  630124
    8230  295394  207930  638361
    8240  294878  208960  646597
    8250  294640  210186  654822
    8260  294090  211207  662708
    8270  293562  212199  670194
    8280  292022  212422  675346
    8290  291623  213506  683493
    8300  291071  214480  691433
    8310  292073  216396  696090
    8310.5  292257  216598  697425
    8311  292010  216481  697824
    8311.5  291876  216436  698328
    8312  291685  216354  698721
    8312.5  291481  216245  698903
    8313  291584  216383  699757
    8313.5  291180  216130  699596
    8314  291302  216274  700348
    8314.5  291394  216424  700952
    8315  291168  216286  700830
    8315.5  291845  216851  702407
    8316  291522  216656  701855
    8316.5  291612  216765  702334
    8317  291453  216720  702217
    8317.5  291909  217107  703255
    8318  291672  216973  702709
    8318.5  291345  216775  702017
    8319  291254  216767  701809
    8319.5  290795  216454  700529
    8320  290092  215963  698852
    8320.5  289713  215746  697780
    8321  288160  214616  694218
    8321.5  286993  213796  691616
    8322  285214  212501  687354
    8322.5  283584  211329  683814
    8323  281922  210106  679987
    8323.5  280697  209231  677335
    8324  279903  208684  675045
    8324.5  278842  207878  672018
    8325  279381  208275  671624
    8325.5  280023  208768  671114
    8326  281457  209883  671788
    8326.5  283453  211420  672876
    8327  285257  212795  673188
    8327.5  287118  214209  672026
    8328  288688  215361  669257
    8328.5  290264  216488  664682
    8329  291536  217399  656374
    8329.5  292210  217779  644577
    8330  292472  217816  626216
    8330.5  292813  217898  606255
    8331  292366  217335  580354
    8331.5  292411  217155  554874
    8332  292702  217192  532181
    8332.5  291994  216466  509472
    8333  291989  216281  489494
    8333.5  291403  215607  455131
    8334  291244  215260  418009
    8334.5  291284  215000  383712
    8335  291095  214444  355690
    8335.5  290587  213559  334077
    8336  290236  212423  313890
    8336.5  290332  211488  299299
    8337  290157  209970  284372
    8337.5  289958  208194  271011
    8338  290051  206229  257682
    8338.5  289687  203294  242360
    8339  289699  200559  228727
    8339.5  289796  197165  213455
    8340  289567  193599  199719
    8340.5  290177  189947  185693
    8341  289975  185432  171222
    8341.5  290156  181273  158156
    8342  290226  176456  143894
    8342.5  290080  171871  131441
    8343  290384  166579  117555
    8343.5  290535  161396  105188
    8344  290468  155719  92795.1
    8344.5  290626  149896  81090.1
    8345  290983  144734  71566.1
    8345.5  290762  138434  61513.1
    8346  290676  133087  53857.1
    8346.5  291215  128047  47111.1
    8347  290694  123286  41820.1
    8347.5  290758  119307  37759.1
    8348  290481  115223  34198.1
    8348.5  290534  112355  32001.1
    8349  290507  109858  30356.1
    8349.5  290091  108287  29444.1
    8350  290230  107775  29150.1
    8350.5  290073  108293  29338.1
    8351  290192  109884  29945.1
    8351.5  290141  112557  30912.1
    8352  289956  115347  31801.1
    8352.5  289871  118784  32810.1
    8353  289896  122207  33735.1
    8353.5  289783  125333  34355.1
    8354  289549  128365  34702.1
    8354.5  289469  130765  34806.1
    8355  289659  133458  34759.1
    8355.5  289390  135547  34486.1
    8356  289753  137950  34241.1
    8356.5  289658  140130  34019.1
    8357  289845  142302  33988.1
    8357.5  289700  144657  34134.1
    8358  289601  146770  34482.1
    8358.5  289641  148976  35072.1
    8359  289598  150795  35701.1
    8359.5  289312  152194  36421.1
    8360  289582  153595  37285.1
    8360.5  289361  154163  37886.1
    8361  289520  154526  38597.1
    8361.5  289349  154272  39039.1
    8362  289629  153889  39542.1
    8362.5  289485  152881  39918.1
    8363  289440  151827  40279.1
    8363.5  289365  150535  40620.1
    8364  289467  149515  40970.1
    8364.5  289320  148322  41291.1
    8365  289239  147437  41668.1
    8365.5  289487  146997  42090.1
    8366  289432  146701  42504.1
    8366.5  289498  146773  42950.1
    8367  289603  147131  43312.1
    8367.5  289533  147562  43688.1
    8368  289454  148153  44020.1
    8368.5  289346  148771  44305.1
    8369  289168  149325  44486.1
    8369.5  288916  149921  44665.1
    8370  289376  150761  44837.1
    8370.88  289904  152088  44828.1
    8371.78  289123  152638  44226.1
    8372.71  288959  153515  43446.1
    8373.65  289096  154558  42488.1
    8374.6  288880  155389  41154.1
    8375.58  289132  156244  39736.1
    8376.58  288812  156400  38129.1
    8377.6  289231  156541  36525.1
    8378.64  289352  156104  34945.1
    8379.69  289180  155127  33419.1
    8380.76  288964  153949  32286
    8381.85  289394  153046  31734.1
    8382.97  289294  151971  31663
    8384.1  289144  151024  32149
    8385.25  289585  150475  33282
    8386.42  289569  149527  34627
    8387.61  289462  148101  36125
    8388.81  289496  146246  37537.9
    8390.04  289351  143878  38711.9
    8391.28  289663  141699  39767.9
    8392.55  289848  139714  40559.9
    8393.83  289661  137959  41043.9
    8395.13  289865  136829  41298.9
    8396.46  289792  135886  41259.9
    8397.8  289546  135138  41056.8
    8399.16  290057  135112  41170.8
    8400.54  290269  135558  41529.8
    8401.94  290617  136837  42189.8
    8403.35  290404  138437  42799.7
    8404.78  290555  140461  43273.7
    8406.24  290583  142560  43439.7
    8407.72  290977  144868  43489.7
    8409.21  290836  146947  43327.7
    8410.72  291199  149032  43330.6
    8412.25  291294  150796  43212.6
    8413.81  291488  152610  42887.5
    8415.38  291711  154290  42255.5
    8416.96  291760  155547  41488.5
    8418.57  292359  156784  40693.4
    8420.2  291858  157037  39669.4
    8421.84  292082  157255  38601.4
    8423.51  292336  157073  37334.3
    8425.19  292657  156532  35866.3
    8426.89  292695  155674  34486.3
    8428.62  293013  154968  33252.3
    8430.36  293363  154589  32587.2
    8432.12  293533  154468  32539.1
    8433.9  293682  154551  33135.1
    8435.7  294220  154855  34301.1
    8437.51  294277  154823  35786
    8439.35  294672  154876  37526
    8441.21  294814  154458  39297.9
    8443.08  295049  153731  40971.9
    8444.97  295586  152896  42414.8
    8446.89  295202  151690  43487.8
    8448.82  295632  151428  44877.8
    8450.77  296547  152088  47099.7
    8452.74  296483  152822  49630.7
    8454.73  296676  154195  52517.6
    8456.74  297086  156098  54910.6
    8458.77  297187  158102  56428.5
    8460.81  297619  160427  57004.5
    8462.88  298064  162594  56609.4
    8464.96  298126  163980  55343.3
    8467.07  298449  164579  53487.3
    8469.19  298600  163880  51243.2
    8471.33  299085  162433  49208.2
    8473.49  299537  160591  47778.1
    8475.67  300078  159017  47191.1
    8477.87  300320  158128  47357
    8480.09  300650  158321  47860.9
    8482.33  300891  159334  47904.9
    8484.58  301190  160750  46792.8
    8486.85  301408  162000  44423.7
    8489.15  301860  162859  41507.7
    8491.47  302094  162939  38993.6
    8493.8  302713  162864  37428.6
    8496.15  303344  162712  36650.5
    8498.52  304005  162593  36394.4
    8500.91  304323  162452  36560.4
    8503.32  304295  162461  37358.3
    8505.75  305087  163307  39159.2
    8508.19  305219  164204  41843.2
    8510.66  305655  165666  45622.1
    8513.15  306147  167543  50634
    8515.65  305905  169380  56359.9
    8518.17  307008  172207  62802.9
    8520.71  307206  174631  68329.8
    8523.27  307834  177017  71712.7
    8525.86  307872  178541  72099.6
    8528.46  308581  179615  70039.6
    8531.07  309097  179642  66416.5
    8533.71  309521  178696  62388.4
    8536.37  309910  177168  58868.4
    8539.04  310403  175655  56231.2
    8541.74  310983  174457  54677.1
    8544.45  311256  173494  54113.1
    8547.19  311649  173116  54358
    8549.93  312140  173309  55037.9
    8552.71  312713  174009  56025.8
    8555.5  313306  174981  57291.7
    8558.31  313639  175925  58835.7
    8561.14  314493  177208  60430.6
    8563.99  315108  178415  60904.5
    8566.85  315182  179202  59716.4
    8569.74  315753  180150  57485.3
    8572.64  316256  181003  55182.2
    8575.57  316824  181984  53634.1
    8578.51  317503  183145  52815
    8581.47  317839  184137  52573.9
    8584.45  318560  185283  53180.8
    8587.45  318821  185943  54558.7
    8590.47  319490  186619  57009.7
    8593.51  319905  187133  60259.6
    8596.57  320499  188029  64186.4
    8599.64  321150  189300  68233.4
    8602.74  321558  190656  71713.3
    8605.85  322229  192127  74361.2
    8608.99  322718  193241  75761.1
    8612.14  323265  194108  76239
    8615.31  323780  194680  76392.9
    8618.5  323469  194499  76368.7
    8621.72  322820  193911  76278.6
    8624.94  324378  194571  76684.5
    8628.19  324338  194210  76646.4
    8631.45  327189  195633  76945.3
    8634.74  328088  196061  76473.2
    8638.05  328250  196298  75639.1
    8641.37  328789  196959  74975
    8644.71  329252  197655  74534.9
    8648.08  329892  198622  74423.8
    8651.46  330644  199924  74623.7
    8654.86  331760  201856  75051.5
    8658.28  332085  203627  75227.4
    8661.72  333067  205665  75379.3
    8665.17  333312  206861  75074.2
    8668.65  333830  207822  74896.1
    8672.15  334450  208499  75299
    8675.66  335338  209210  76537.8
    8679.19  336059  209887  78404.7
    8682.75  336359  210515  80691.6
    8686.32  336983  211542  83415.5
    8689.92  337427  212510  85815.4
    8693.52  338048  213375  87468.2
    8697.16  339005  214179  88290.1
    8700.81  339779  214681  88546
    8704.47  340283  215025  89037.9
    8708.16  340828  215461  90389.8
    8711.86  341848  216188  92800.6
    8715.58  342133  216473  95184.5
    8719.34  342545  217013  96775.4
    8723.1  343714  218318  97736.2
    8726.88  344321  219488  98444.1
    8730.68  344937  220783  99279
    8734.5  345758  222339  100027
    8738.34  346390  223999  100656
    8742.2  347047  225925  101328
    8746.08  347865  227828  101883
    8749.97  348719  229356  102246
    8753.89  349393  230327  102374
    8757.82  349991  230893  102305
    8761.77  351035  231631  102451
    8765.75  351430  232056  102489
    8769.74  352247  233066  102836
    8773.75  352743  234080  103293
    8777.78  353845  235578  104310
    8781.83  354395  236580  105553
    8785.9  354807  237529  107317
    8789.99  355355  238596  109675
    8794.09  356438  239971  112338
    8798.22  357341  241093  114600
    8802.36  357975  241992  116241
    8806.53  358386  242805  117320
    8810.7  359293  243892  118238
    8814.91  360159  244780  119027
    8819.13  360346  245147  119757
    8823.37  360411  245639  120891
    8827.63  355760  243172  121047
    8831.91  362187  248483  125305
    8836.2  361313  248758  126842
    8840.52  359241  248185  127638
    8844.85  366258  253933  131536
    8849.21  367097  255455  133407
    8853.59  367585  256739  135085
    8857.97  369278  258867  137044
    8862.38  369063  259669  137997
    8866.82  370158  261228  139036
    8871.27  370759  262282  139566
    8875.74  371776  263597  140134
    8880.22  372706  264984  140613
    8884.73  373375  266288  140878
    8889.26  373764  267382  141066
    8893.8  374674  268758  141781
    8898.37  375533  270040  143051
    8902.95  376542  271271  145011
    8907.55  376900  271896  147395
    8912.17  378017  272947  150093
    8916.81  378663  273867  152466
    8921.47  379670  275313  154865
    8926.15  379779  276384  156735
    8930.85  381384  278750  159265
    8935.57  381256  279820  160917
    8940.3  382473  281687  162943
    8945.06  383144  282943  164610
    8949.83  384291  284521  166632
    8954.62  385610  286247  168809
    8959.43  386361  287713  170814
    8964.26  386714  288982  172838
    8969.12  387795  290789  175367
    8973.98  388584  292237  177636
    8978.87  389247  293447  179596
    8983.78  390096  294827  181555
    8988.71  390723  296093  183283
    8993.65  391662  297607  185041
    8998.61  392264  298883  186657
    9003.6  392827  300125  188239
    9008.6  394144  301989  190164
    9013.63  394951  303414  191652
    9018.67  395975  304947  193265
    9023.73  396737  306245  194938
    9028.8  397912  307938  197060
    9033.9  398025  308974  198938
    9039.02  399327  311072  201580
    9044.16  399852  312567  203862
    9049.31  400885  314404  206579
    9054.49  401504  315824  209132
    9059.68  402109  317181  211794
    9064.89  401799  317933  213781
    9070.12  403674  320278  216868
    9075.38  404492  321756  219322
    9080.65  404126  322358  221301
    9085.93  403926  323314  223637
    9091.24  406799  326740  227559
    9096.57  408297  329008  230675
    9101.91  406331  328418  231892
    9107.28  409537  332045  236099
    9112.66  410083  333474  238818
    9118.07  412462  336401  242627
    9123.49  412278  337221  244938
    9128.93  412810  338614  247552
    9134.39  414128  340570  250399
    9139.87  415852  342804  253358
    9145.37  416317  343965  255380
    9150.89  416842  345288  257540
    9156.43  418328  347577  260533
    9161.98  418963  349206  263106
    9167.56  420221  351401  266300
    9173.15  420738  352994  269256
    9178.76  421600  354881  272528
    9184.4  422112  356393  275463
    9190.05  423431  358588  278840
    9195.72  423825  360041  281587
    9201.41  424503  361747  284590
    9207.11  425715  363902  288048
    9212.84  426610  365743  291409
    9218.59  427231  367333  294724
    9224.35  428264  369325  298478
    9230.13  429161  371246  302157
    9235.94  429632  372776  305502
    9241.76  428512  372878  307745
    9247.61  431526  376563  312872
    9253.47  433076  379006  317063
    9259.35  432529  379627  319721
    9265.25  432638  380833  322858
    9271.17  435362  384342  327957
    9277.1  436480  386467  331776
    9283.06  437564  388623  335817
    9289.03  438343  390487  339489
    9295.03  438663  391946  342748
    9301.04  439637  393945  346441
    9307.08  440306  395718  349977
    9313.13  441324  397833  353884
    9319.2  441964  399635  357571
    9325.29  443388  402135  361993
    9331.4  444157  404068  365948
    9337.52  444525  405621  369615
    9343.67  446259  408450  374548
    9349.84  446696  410089  378428
    9356.02  447908  412446  383013
    9362.23  448106  413854  386808
    9368.45  449127  416017  391297
    9374.69  450055  418131  395769
    9380.95  450234  419562  399614
    9387.24  451368  421918  404434
    9393.53  452489  424209  409300
    9399.86  453126  426048  413762
    9406.19  454355  428446  418786
    9412.55  455152  430470  423524
    9418.92  455794  432408  428278
    9425.32  456907  434779  433554
    9431.74  457566  436976  437855
    9438.17  458537  438948  443501
    9444.62  459271  440928  448443
    9451.09  460193  443147  453676