File: data/Ni/Ni_metal_rt_01.xdi
# XDI/1.0
# Column.1: energy eV
# Column.2: i0
# Column.3: itrans
# Beamline.name: APS 13-ID-C
# Beamline.notes: vert slits = 0.3mm
# Detector.I0: N2 10cm
# Detector.I1: N2 10cm
# Element.edge: K
# Element.symbol: Ni
# Mono.d_spacing: 3.13550
# Mono.name: Si(111)
# Mono.notes: focussed, detuned 50%
# Sample.formula: Ni
# Sample.name: Ni foil  Room Temperature
# Sample.prep: metal foil
# Sample.reference: none
# Sample.temperature: Room Temperature
# Scan.start_time: 2001-06-26 21:46:07
# ///
#    Note: mono d_spacing is nominal!
#     data from ni_foil.001
#     418 E XMU I0
#-------------
#   energy   i0   itrans
    8133  151942  498119
    8143  140821  460223
    8153  126261  414394
    8163  120387  396433
    8173  117712  387568
    8183  116593  387095
    8193  116418  388066
    8203  116166  388524
    8213  115658  387150
    8223  115979  391089
    8233  115895  392096
    8243  116358  394598
    8253  116690  396633
    8263  116522  398349
    8273  116289  398899
    8283  116374  399918
    8293  116616  400723
    8303  116084  400681
    8313  116212  399842
    8313.5  118081  406697
    8314  119028  409867
    8314.5  119706  412100
    8315  120605  415212
    8315.5  119881  412554
    8316  120303  413722
    8316.5  120190  413101
    8317  120276  413173
    8317.5  120278  412940
    8318  120270  412728
    8318.5  120158  412064
    8319  120458  412761
    8319.5  120733  413543
    8320  120266  411606
    8320.5  120000  410300
    8321  120328  411113
    8321.5  119975  409388
    8322  119938  408813
    8322.5  120029  408570
    8323  118336  402139
    8323.5  120379  408342
    8324  120000  406246
    8324.5  119955  405301
    8325  120533  406311
    8325.5  119866  402838
    8326  119871  401410
    8326.5  120487  401835
    8327  119981  398126
    8327.5  119722  394760
    8328  119672  391484
    8328.5  119520  386773
    8329  118925  378966
    8329.5  118583  368861
    8330  118553  353361
    8330.5  118139  328580
    8331  116607  294780
    8331.5  114055  255981
    8332  111554  226596
    8332.5  108409  199030
    8333  107994  180808
    8333.5  118131  181940
    8334  134421  196921
    8334.5  140549  198612
    8335  135549  186096
    8335.5  129003  172841
    8336  124518  162682
    8336.5  122337  154340
    8337  121365  146811
    8337.5  119996  137904
    8338  119818  131714
    8338.5  120055  126253
    8339  119794  121292
    8339.5  119932  116838
    8340  119939  112514
    8340.5  120031  106874
    8341  120315  101258
    8341.5  120248  94102.1
    8342  120248  87585.1
    8342.5  120034  79680.1
    8343  120435  73395.1
    8343.5  120003  66190.1
    8344  120047  60664.1
    8344.5  119937  54699.1
    8345  119937  49904.1
    8345.5  120186  45355.1
    8346  120425  42098.1
    8346.5  120072  39383.1
    8347  120286  37792.1
    8347.5  120516  36721.1
    8348  120197  36199.1
    8348.5  119930  36022.1
    8349  119876  36193.1
    8349.5  119880  36590.1
    8350  120233  37239.1
    8350.5  120258  37963.1
    8351  119908  38492.1
    8351.5  120159  39050.1
    8352  120286  39416.1
    8352.5  120181  39313.1
    8353  120198  38907.1
    8353.5  120232  38145.1
    8354  119951  36933.1
    8354.5  120088  35569.1
    8355  120003  34473.1
    8355.5  119827  33363.1
    8356  120180  32764.1
    8356.5  119926  32313.1
    8357  119810  32259.1
    8357.5  120175  32673.1
    8358  119817  33037.1
    8358.98  120398  34414.1
    8359.99  120484  35399.1
    8361.01  120657  36383.1
    8362.05  120461  37403.1
    8363.11  120374  38897.1
    8364.19  120685  40324.1
    8365.29  120465  41115.1
    8366.41  120654  41728.1
    8367.55  120230  41867.1
    8368.7  120274  41980.1
    8369.88  120026  41570.1
    8371.07  120199  40706.1
    8372.28  119986  39256.1
    8373.52  120178  37653.1
    8374.77  120019  35737.1
    8376.04  120068  33884.1
    8377.33  119955  32041.1
    8378.64  120265  30496.1
    8379.96  119425  29179.1
    8381.31  120287  29142.1
    8382.67  119533  29414.1
    8384.06  120041  30755.1
    8385.46  120030  32662.1
    8386.88  119733  34578.1
    8388.33  120277  36816.1
    8389.78  119903  38537.1
    8391.26  120014  40245.1
    8392.76  120023  41412.1
    8394.28  120084  42118.1
    8395.82  119988  42080.1
    8397.37  119744  41863.1
    8398.95  120077  42167.1
    8400.54  119987  42605.1
    8402.15  119974  42827.1
    8403.78  119330  42486.1
    8405.43  119719  42056.1
    8407.1  119742  41307.1
    8408.79  118994  40370.1
    8410.5  120394  40387.1
    8412.23  120462  39831.1
    8413.97  119599  38489.1
    8415.74  119450  37289.1
    8417.52  119451  36273.1
    8419.32  119784  35418.1
    8421.15  119757  34363.1
    8422.99  119865  33212.1
    8424.84  119344  31754.1
    8426.72  119841  30682.1
    8428.62  119484  29688.1
    8430.54  119751  29393.1
    8432.47  120241  29936.1
    8434.43  119805  30665.1
    8436.4  119776  31998.1
    8438.4  119656  33558.1
    8440.41  119953  35414.1
    8442.44  113682  35292.1
    8444.49  122480  39600.1
    8446.56  121266  40212.1
    8448.65  120738  41508.1
    8450.75  120136  43109.1
    8452.88  119925  45247.1
    8455.02  119871  47174.1
    8457.19  119628  48298.1
    8459.37  119736  48439.1
    8461.57  119389  47583.1
    8463.79  119833  46474.1
    8466.03  119777  44659.1
    8468.29  119481  42846.1
    8470.57  119778  41520.1
    8472.87  120255  40839.1
    8475.18  119857  40643.1
    8477.52  119837  41060.1
    8479.87  120105  41704.1
    8482.25  119933  41390.1
    8484.64  119746  39664.1
    8487.05  120225  37160.1
    8489.48  119721  34272.1
    8491.93  120193  32630.1
    8494.4  119441  31445.1
    8496.89  119779  31182.1
    8499.39  119099  30874.1
    8501.92  119358  31354.1
    8504.46  119488  32529.1
    8507.03  119767  34489.1
    8509.61  119895  37113.1
    8512.21  119636  40387.1
    8514.83  119698  44491.1
    8517.47  119629  48909.1
    8520.13  119695  52180.1
    8522.81  119709  53896.1
    8525.5  120033  53742.1
    8528.22  119857  51638.1
    8530.95  119452  48752.1
    8533.71  119505  46208.1
    8536.48  119785  44293.1
    8539.27  119768  42807.1
    8542.08  119583  42071.1
    8544.91  119560  42207.1
    8547.76  119223  42373.1
    8550.63  119100  42761.1
    8553.52  119204  43426.1
    8556.42  119786  44533.1
    8559.35  119279  45217.1
    8562.29  119521  45803.1
    8565.25  119233  45069.1
    8568.24  119529  43467.1
    8571.24  119295  41437.1
    8574.26  119478  39998.1
    8577.3  119766  39286.1
    8580.35  119828  38733.1
    8583.43  119553  38696.1
    8586.53  119619  39454.1
    8589.64  119399  40879.1
    8592.78  119903  43201.1
    8595.93  119649  45509.1
    8599.1  120085  48273.1
    8602.29  118181  49186.1
    8605.5  119997  51186.1
    8608.73  119809  51587.1
    8611.98  119269  51301.1
    8615.25  119525  51303.1
    8618.53  118895  51001.1
    8621.84  118971  51163.1
    8625.16  119344  51421.1
    8628.51  118568  51070.1
    8631.87  119210  51126.1
    8635.25  119422  50662.1
    8638.65  119331  49963.1
    8642.07  118835  49256.1
    8645.51  119282  49079.1
    8648.97  119031  48696.1
    8652.44  119125  48555.1
    8655.94  120017  48779.1
    8659.45  119638  48215.1
    8662.99  119717  47762.1
    8666.54  119458  47233.1
    8670.11  119421  47186.1
    8673.7  119027  47477.1
    8677.31  117986  47891.1
    8680.94  120670  50091.1
    8684.59  119949  51019.1
    8688.26  119870  52190.1
    8691.94  119337  52685.1
    8695.65  119335  53041.1
    8699.37  119616  53091.1
    8703.11  118998  52851.1
    8706.88  119328  53615.1
    8710.66  119119  54631.1
    8714.46  119912  56263.1
    8718.27  119842  56861.1
    8722.11  119709  56906.1
    8725.97  119582  56969.1
    8729.85  119328  56933.1
    8733.74  118723  56572.1
    8737.65  118074  56230.1
    8741.59  121607  57812.1
    8745.54  121465  57548.1
    8749.51  120112  56639.1
    8753.5  119317  56083.1
    8757.51  119209  55819.1
    8761.54  119507  55841.1
    8765.58  119169  55567.1
    8769.65  118902  55428.1
    8773.74  119604  55778.1
    8777.84  119217  55806.1
    8781.96  119698  56468.1
    8786.11  119340  57083.1
    8790.27  118899  57753.1
    8794.45  114470  56502.1
    8798.65  122276  61091.1
    8802.87  120248  60367.1
    8807.1  118551  59701.1
    8811.36  119604  60309.1
    8815.64  119576  60506.1
    8819.93  119129  60485.1
    8824.24  119409  61104.1
    8828.58  119471  61794.1
    8832.93  118978  62144.1
    8837.3  119527  62913.1
    8841.69  119652  63342.1
    8846.1  119971  63978.1
    8850.52  119327  64032.1
    8854.97  119299  64347.1
    8859.44  119198  64544.1
    8863.92  116107  63015.1
    8868.42  120347  65199.1
    8872.95  120061  64956.1
    8877.49  119894  64741.1
    8882.05  119167  64182.1
    8886.63  120068  64481.1
    8891.23  118790  63638.1
    8895.85  118934  63804.1
    8900.48  118795  64125.1
    8905.14  118518  64657.1
    8909.81  118865  65684.1
    8914.51  119514  66719.1
    8919.22  119005  67034.1
    8923.95  119228  67652.1
    8928.7  119680  68442.1
    8933.47  119236  68431.1
    8938.26  119206  68757.1
    8943.07  118816  68773.1
    8947.9  118772  69108.1
    8952.74  118528  69243.1
    8957.61  118737  69768.1
    8962.49  119300  70510.1
    8967.4  119456  71097.1
    8972.32  119080  71361.1
    8977.26  118636  71531.1
    8982.22  119632  72454.1
    8987.2  119020  72269.1
    8992.2  119795  73023.1
    8997.21  119271  72845.1
    9002.25  119612  73358.1
    9007.31  119569  73506.1
    9012.38  119379  73502.1
    9017.47  119204  73656.1
    9022.58  119245  73802.1
    9027.72  119472  74237.1
    9032.87  117822  73528.1
    9038.04  119585  75029.1
    9043.23  119469  75317.1
    9048.43  119418  75729.1
    9053.66  119452  76213.1
    9058.9  119297  76574.1
    9064.17  118855  76698.1
    9069.45  119361  77445.1
    9074.76  118999  77656.1
    9080.08  119420  78293.1
    9085.42  119408  78808.1
    9090.78  118663  78734.1
    9096.16  119085  79376.1
    9101.55  119091  79788.1
    9106.97  119163  80275.1
    9112.41  119115  80696.1
    9117.86  119320  81253.1
    9123.33  119321  81699.1
    9128.83  119164  81977.1
    9134.34  119766  82847.1
    9139.87  119691  83018.1
    9145.42  120048  83536.1
    9150.99  118987  83084.1
    9156.58  119744  83955.1
    9162.18  119352  83935.1
    9167.81  119478  84414.1
    9173.45  119036  84580.1
    9179.12  119551  85365.1
    9184.8  119204  85546.1
    9190.5  119856  86386.1
    9196.23  119282  86306.1
    9201.97  119382  86758.1
    9207.72  119121  87000.1
    9213.5  118762  87268.1
    9219.3  119493  88222.1
    9225.11  119458  88658.1
    9230.95  119416  89125.1
    9236.81  119325  89555.1
    9242.68  118726  89522.1
    9248.57  119554  90619.1
    9254.48  119284  90920.1
    9260.41  119506  91531.1
    9266.36  119279  91805.1
    9272.33  119570  92436.1
    9278.32  119258  92675.1
    9284.32  119233  93068.1
    9290.35  118979  93296.1
    9296.39  119143  93832.1
    9302.46  119068  94170.1
    9308.54  119257  94693.1
    9314.64  119219  95094.1
    9320.76  119624  95850.1
    9326.9  119438  96116.1
    9333.06  119477  96560.1
    9339.24  119282  96848.1
    9345.43  118334  96580.1
    9351.65  119693  98117.1
    9357.88  119705  98578.1
    9364.14  119734  99082.1
    9370.41  120100  99856.1
    9376.7  119682  99941.1
    9383.01  119474  100251
    9389.34  118496  99954.1
    9395.69  119460  101241
    9402.06  119766  102000
    9408.44  119377  102168
    9414.85  119145  102497
    9421.27  119698  103475
    9427.72  119305  103645
    9434.18  119318  104199
    9440.66  119314  104730
    9447.17  119695  105582
    9453.69  118925  105388
    9460.23  118940  105894
    9466.78  118932  106345
    9473.36  119194  107103
    9479.95  118798  107219
    9486.57  119163  108063
    9493.2  119248  108670
    9499.86  119342  109280
    9506.53  119518  109972
    9513.22  119100  110025
    9519.93  119189  110679
    9526.66  119803  111775
    9533.41  118856  111315
    9540.18  119874  112898
    9546.96  119624  113228
    9553.77  119796  113898
    9560.59  119915  114642
    9567.43  119513  114748