File: data/Ni/ni_metal_rt.xdi
# XDI/1.0 GSE/1.0
# Column.1: energy eV
# Column.2: mutrans
# Column.3: i0
# Element.edge: K
# Element.symbol: Ni
# Scan.edge_energy: 8333.0
# Mono.name: Si 111
# Mono.d_spacing: 3.13555
# Beamline.name: 13-ID-C
# Beamline.collimation: none
# Beamline.harmonic_rejection: detuned
# Facility.name: APS
# Facility.energy: 7.00 GeV
# Facility.xray_source: APS undulator A
# Scan.start_time: 2001-06-26T21:46:07
# Detector.I0: 10cm  N2
# Detector.I1: 10cm  N2
# Sample.name: Ni metal foil
# Sample.prep: standard foil (Joe Wong boxed set)
# ///
# room temperature
# measured at beamline 13-ID-C
# vert slits = 0.3 x 0.3mm (at ~50m)
#----
#   energy      mutrans          i0
  8133       -1.18734        151941.70
  8143       -1.18422        140820.70
  8153       -1.18847        126260.70
  8163       -1.1918        120386.70
  8173       -1.19165        117711.70
  8183       -1.19998        116592.70
  8193       -1.20399        116417.70
  8203       -1.20734        116165.70
  8213       -1.20818        115657.70
  8223       -1.21553        115978.70
  8233       -1.21882        115894.70
  8243       -1.2212        116357.70
  8253       -1.22349        116689.70
  8263       -1.22925        116521.70
  8273       -1.23263        116288.70
  8283       -1.23445        116373.70
  8293       -1.23439        116615.70
  8303       -1.23885        116083.70
  8313       -1.23566        116211.70
  8313.5       -1.2367        118080.70
  8314       -1.23648        119027.70
  8314.5       -1.23623        119705.70
  8315       -1.23627        120604.70
  8315.5       -1.23587        119880.70
  8316       -1.23518        120302.70
  8316.5       -1.23462        120189.70
  8317       -1.23408        120275.70
  8317.5       -1.2335        120277.70
  8318       -1.23305        120269.70
  8318.5       -1.23237        120157.70
  8319       -1.23157        120457.70
  8319.5       -1.23118        120732.70
  8320       -1.23036        120265.70
  8320.5       -1.2294        119999.70
  8321       -1.22865        120327.70
  8321.5       -1.22738        119974.70
  8322       -1.22629        119937.70
  8322.5       -1.22493        120028.70
  8323       -1.22327        118335.70
  8323.5       -1.22146        120378.70
  8324       -1.21947        119999.70
  8324.5       -1.21752        119954.70
  8325       -1.2152        120532.70
  8325.5       -1.21216        119865.70
  8326       -1.20857        119870.70
  8326.5       -1.2045        120486.70
  8327       -1.19944        119980.70
  8327.5       -1.19311        119721.70
  8328       -1.18519        119671.70
  8328.5       -1.17436        119519.70
  8329       -1.15896        118924.70
  8329.5       -1.13481        118582.70
  8330       -1.09213        118552.70
  8330.5       -1.02292        118138.70
  8331      -0.927423        116606.70
  8331.5      -0.808425        114054.70
  8332      -0.708663        111553.70
  8332.5      -0.607548        108408.70
  8333      -0.515363        107993.70
  8333.5      -0.431886        118130.70
  8334      -0.381829        134420.70
  8334.5      -0.3458        140548.70
  8335      -0.316932        135548.70
  8335.5      -0.292539        129002.70
  8336      -0.26735        124517.70
  8336.5      -0.232382        122336.70
  8337      -0.190347        121364.70
  8337.5      -0.139103        119995.70
  8338      -0.0946622    119817.70
  8338.5      -0.0503412    120054.70
  8339      -0.0124306    119793.70
  8339.5       0.0261332    119931.70
  8340       0.0639022    119938.70
  8340.5       0.116096        120030.70
  8341       0.172438        120314.70
  8341.5       0.245173        120247.70
  8342       0.316943        120247.70
  8342.5       0.409753        120033.70
  8343       0.495251        120434.70
  8343.5       0.594983        120002.70
  8344       0.682529        120046.70
  8344.5       0.785117        119936.70
  8345       0.876861        119936.70
  8345.5       0.974515        120185.70
  8346        1.05102        120424.70
  8346.5        1.11475        120071.70
  8347        1.15777        120285.70
  8347.5        1.18843        120515.70
  8348        1.2001        120196.70
  8348.5        1.20277        119929.70
  8349        1.19759        119875.70
  8349.5        1.18671        119879.70
  8350        1.17207        120232.70
  8350.5        1.15302        120257.70
  8351        1.13627        119907.70
  8351.5        1.12397        120158.70
  8352        1.1157        120285.70
  8352.5        1.11744        120180.70
  8353        1.12796        120197.70
  8353.5        1.14802        120231.70
  8354        1.17797        119950.70
  8354.5        1.21674        120087.70
  8355        1.24733        120002.70
  8355.5        1.2786        119826.70
  8356        1.29965        120179.70
  8356.5        1.3114        119925.70
  8357        1.3121        119809.70
  8357.5        1.30239        120174.70
  8358        1.28833        119816.70
  8358.98        1.25233        120397.70
  8359.99        1.22483        120483.70
  8361.01        1.19884        120656.70
  8362.05        1.16957        120460.70
  8363.11        1.12968        120373.70
  8364.19        1.09623        120684.70
  8365.29        1.07498        120464.70
  8366.41        1.06175        120653.70
  8367.55        1.0549        120229.70
  8368.7        1.05257        120273.70
  8369.88        1.06032        120025.70
  8371.07        1.08277        120198.70
  8372.28        1.11727        119985.70
  8373.52        1.16056        120177.70
  8374.77        1.21146        120018.70
  8376.04        1.26511        120067.70
  8377.33        1.32009        119954.70
  8378.64        1.3721        120264.70
  8379.96        1.40923        119424.70
  8381.31        1.41769        120286.70
  8382.67        1.40212        119532.70
  8384.06        1.36177        120040.70
  8385.46        1.30152        120029.70
  8386.88        1.24204        119732.70
  8388.33        1.18386        120276.70
  8389.78        1.13506        119902.70
  8391.26        1.09262        120013.70
  8392.76        1.06411        120022.70
  8394.28        1.04771        120083.70
  8395.82        1.04781        119987.70
  8397.37        1.05095        119743.70
  8398.95        1.04649        120076.70
  8400.54        1.03541        119986.70
  8402.15        1.0301        119973.70
  8403.78        1.03271        119329.70
  8405.43        1.04614        119718.70
  8407.1        1.0643        119741.70
  8408.79        1.08098        118993.70
  8410.5        1.09226        120393.70
  8412.23        1.10668        120461.70
  8413.97        1.13377        119598.70
  8415.74        1.16419        119449.70
  8417.52        1.19183        119450.70
  8419.32        1.21846        119783.70
  8421.15        1.24848        119756.70
  8422.99        1.28345        119864.70
  8424.84        1.32399        119343.70
  8426.72        1.36248        119840.70
  8428.62        1.39243        119483.70
  8430.54        1.40465        119750.70
  8432.47        1.39043        120240.70
  8434.43        1.36274        119804.70
  8436.4        1.31994        119775.70
  8438.4        1.27134        119655.70
  8440.41        1.21999        119952.70
  8442.44        1.16974        113681.70
  8444.49        1.12911        122479.70
  8446.56        1.10382        121265.70
  8448.65        1.06773        120737.70
  8450.75        1.02489        120135.70
  8452.88       0.974725        119924.70
  8455.02       0.932569        119870.70
  8457.19       0.906992        119627.70
  8459.37       0.904979        119735.70
  8461.57       0.919907        119388.70
  8463.79       0.947201        119832.70
  8466.03       0.986571        119776.70
  8468.29        1.02554        119480.70
  8470.57        1.05946        119777.70
  8472.87        1.07997        120254.70
  8475.18        1.08147        119856.70
  8477.52        1.07109        119836.70
  8479.87        1.05776        120104.70
  8482.25        1.06389        119932.70
  8484.64        1.10492        119745.70
  8487.05        1.17413        120224.70
  8489.48        1.25083        119720.70
  8491.93        1.30386        120192.70
  8494.4        1.33458        119440.70
  8496.89        1.3458        119778.70
  8499.39        1.35003        119098.70
  8501.92        1.33678        119357.70
  8504.46        1.30108        119487.70
  8507.03        1.2449        119766.70
  8509.61        1.17264        119894.70
  8512.21        1.08594        119635.70
  8514.83       0.98968        119697.70
  8517.47       0.894429        119628.70
  8520.13       0.830243        119694.70
  8522.81       0.798003        119708.70
  8525.5       0.803568        120032.70
  8528.22       0.842037        119856.70
  8530.95       0.896164        119451.70
  8533.71       0.950201        119504.70
  8536.48       0.994867        119784.70
  8539.27        1.02885        119767.70
  8542.08        1.04465        119582.70
  8544.91        1.04123        119559.70
  8547.76        1.03448        119222.70
  8550.63        1.02433        119099.70
  8553.52        1.00977        119203.70
  8556.42       0.989472        119785.70
  8559.35       0.969987        119278.70
  8562.29       0.959138        119520.70
  8565.25       0.97288        119232.70
  8568.24        1.01155        119528.70
  8571.24        1.05742        119294.70
  8574.26        1.0943        119477.70
  8577.3        1.11467        119765.70
  8580.35        1.12936        119827.70
  8583.43        1.12802        119552.70
  8586.53        1.10917        119618.70
  8589.64        1.07185        119398.70
  8592.78        1.02081        119902.70
  8595.93       0.966648        119648.70
  8599.1       0.911323        120084.70
  8602.29       0.876604        118180.70
  8605.5       0.851996        119996.70
  8608.73       0.842625        119808.70
  8611.98       0.843667        119268.70
  8615.25       0.845772        119524.70
  8618.53       0.846391        118894.70
  8621.84       0.843859        118970.70
  8625.16       0.841959        119343.70
  8628.51       0.842285        118567.70
  8631.87       0.846589        119209.70
  8635.25       0.857483        119421.70
  8638.65       0.870614        119330.70
  8642.07       0.8807        118834.70
  8645.51       0.888055        119281.70
  8648.97       0.893783        119030.70
  8652.44       0.897472        119124.70
  8655.94       0.900329        120016.70
  8659.45       0.908796        119637.70
  8662.99       0.918896        119716.70
  8666.54       0.927867        119457.70
  8670.11       0.928553        119420.70
  8673.7       0.9191        119026.70
  8677.31       0.901634        117985.70
  8680.94       0.879214        120669.70
  8684.59       0.854864        119948.70
  8688.26       0.831512        119869.70
  8691.94       0.817616        119336.70
  8695.65       0.810865        119334.70
  8699.37       0.812275        119615.70
  8703.11       0.811626        118997.70
  8706.88       0.800043        119327.70
  8710.66       0.779517        119118.70
  8714.46       0.756717        119911.70
  8718.27       0.74556        119841.70
  8722.11       0.743659        119708.70
  8725.97       0.741491        119581.70
  8729.85       0.739997        119327.70
  8733.74       0.741275        118722.70
  8737.65       0.741857        118073.70
  8741.59       0.743594        121606.70
  8745.54       0.747003        121464.70
  8749.51       0.751723        120111.70
  8753.5       0.754947        119316.70
  8757.51       0.75876        119208.70
  8761.54       0.760862        119506.70
  8765.58       0.762949        119168.70
  8769.65       0.76321        118901.70
  8773.74       0.762802        119603.70
  8777.84       0.75906        119216.70
  8781.96       0.751294        119697.70
  8786.11       0.737466        119339.70
  8790.27       0.722095        118898.70
  8794.45       0.706032        114469.70
  8798.65       0.693912        122275.70
  8802.87       0.68911        120247.70
  8807.1       0.68599        118550.70
  8811.36       0.684701        119603.70
  8815.64       0.681205        119575.70
  8819.93       0.677807        119128.70
  8824.24       0.669973        119408.70
  8828.58       0.659263        119470.70
  8832.93       0.64948        118977.70
  8837.3       0.641785        119526.70
  8841.69       0.636035        119651.70
  8846.1       0.628707        119970.70
  8850.52       0.622481        119326.70
  8854.97       0.617339        119298.70
  8859.44       0.613435        119197.70
  8863.92       0.611135        116106.70
  8868.42       0.612931        120346.70
  8872.95       0.614286        120060.70
  8877.49       0.616209        119893.70
  8882.05       0.618799        119166.70
  8886.63       0.621684        120067.70
  8891.23       0.624142        118789.70
  8895.85       0.622749        118933.70
  8900.48       0.616561        118794.70
  8905.14       0.605964        118517.70
  8909.81       0.593129        118864.70
  8914.51       0.58294        119513.70
  8919.22       0.573962        119004.70
  8923.95       0.566657        119227.70
  8928.7       0.558831        119679.70
  8933.47       0.555275        119235.70
  8938.26       0.550271        119205.70
  8943.07       0.546761        118815.70
  8947.9       0.541531        118771.70
  8952.74       0.537523        118527.70
  8957.61       0.531732        118736.70
  8962.49       0.525883        119299.70
  8967.4       0.518899        119455.70
  8972.32       0.51204        119079.70
  8977.26       0.505925        118635.70
  8982.22       0.501465        119631.70
  8987.2       0.498892        119019.70
  8992.2       0.495004        119794.70
  8997.21       0.49306        119270.70
  9002.25       0.488898        119611.70
  9007.31       0.486523        119568.70
  9012.38       0.484987        119378.70
  9017.47       0.481427        119203.70
  9022.58       0.479791        119244.70
  9027.72       0.475816        119471.70
  9032.87       0.471505        117821.70
  9038.04       0.466149        119584.70
  9043.23       0.461347        119468.70
  9048.43       0.455465        119417.70
  9053.66       0.449379        119451.70
  9058.9       0.443355        119296.70
  9064.17       0.438025        118854.70
  9069.45       0.432581        119360.70
  9074.76       0.426822        118998.70
  9080.08       0.422185        119419.70
  9085.42       0.415528        119407.70
  9090.78       0.410209        118662.70
  9096.16       0.405638        119084.70
  9101.55       0.400511        119090.70
  9106.97       0.39503        119162.70
  9112.41       0.389397        119114.70
  9117.86       0.384237        119319.70
  9123.33       0.378772        119320.70
  9128.83       0.374058        119163.70
  9134.34       0.368541        119765.70
  9139.87       0.365852        119690.70
  9145.42       0.36261        120047.70
  9150.99       0.359158        118986.70
  9156.58       0.355071        119743.70
  9162.18       0.352031        119351.70
  9167.81       0.347395        119477.70
  9173.45       0.341724        119035.70
  9179.12       0.336803        119550.70
  9184.8       0.331778        119203.70
  9190.5       0.327462        119855.70
  9196.23       0.323588        119281.70
  9201.97       0.319202        119381.70
  9207.72       0.314228        119120.70
  9213.5       0.308134        118761.70
  9219.3       0.303398        119492.70
  9225.11       0.298175        119457.70
  9230.95       0.29257        119415.70
  9236.81       0.286994        119324.70
  9242.68       0.28233        118725.70
  9248.57       0.277101        119553.70
  9254.48       0.271524        119283.70
  9260.41       0.266685        119505.70
  9266.36       0.261795        119278.70
  9272.33       0.257382        119569.70
  9278.32       0.252187        119257.70
  9284.32       0.247746        119232.70
  9290.35       0.243166        118978.70
  9296.39       0.238815        119142.70
  9302.46       0.23459        119067.70
  9308.54       0.230637        119256.70
  9314.64       0.226093        119218.70
  9320.76       0.221565        119623.70
  9326.9       0.217238        119437.70
  9333.06       0.212956        119476.70
  9339.24       0.208344        119281.70
  9345.43       0.203136        118333.70
  9351.65       0.198766        119692.70
  9357.88       0.194179        119704.70
  9364.14       0.189321        119733.70
  9370.41       0.184592        120099.70
  9376.7       0.180255        119681.70
  9383.01       0.175418        119473.70
  9389.34       0.170166        118495.70
  9395.69       0.165474        119459.70
  9402.06       0.160564        119765.70
  9408.44       0.155665        119376.70
  9414.85       0.150504        119144.70
  9421.27       0.145638        119697.70
  9427.72       0.140708        119304.70
  9434.18       0.135486        119317.70
  9440.66       0.13037        119313.70
  9447.17       0.125455        119694.70
  9453.69       0.120841        118924.70
  9460.23       0.116177        118939.70
  9466.78       0.11186        118931.70
  9473.36       0.106958        119193.70
  9479.95       0.102548        118797.70
  9486.57       0.0977745    119162.70
  9493.2       0.0928862    119247.70
  9499.86       0.0880765    119341.70
  9506.53       0.0832378    119517.70
  9513.22       0.0792524    119099.70
  9519.93       0.0740729    119188.70
  9526.66       0.0693574    119802.70
  9533.41       0.0655452    118855.70
  9540.18       0.059953    119873.70
  9546.96       0.0549466    119623.70
  9553.77       0.0504836    119795.70
  9560.59       0.0449656    119914.70
  9567.43       0.0406834    119512.70