File: data/Ni/Ni_metal_rt_02.xdi
# XDI/1.0
# Column.1: energy eV
# Column.2: i0
# Column.3: itrans
# Beamline.name: APS 13-ID-C
# Beamline.notes: vert slits = 0.3mm
# Detector.I0: N2 10cm
# Detector.I1: N2 10cm
# Element.edge: K
# Element.symbol: Ni
# Mono.d_spacing: 3.13550
# Mono.name: Si(111)
# Mono.notes: focussed, detuned 50%
# Sample.formula: Ni
# Sample.name: Ni foil  Room Temperature
# Sample.prep: metal foil
# Sample.reference: none
# Sample.temperature: Room Temperature
# Scan.start_time: 2001-06-26 21:58:18
# ///
#    Note: mono d_spacing is nominal!
#     data from ni_foil.001
#     418 E XMU I0
#-------------
#   energy   i0   itrans
    8133  156032  508820
    8143  149559  489182
    8153  128784  422729
    8163  120289  396189
    8173  117445  388217
    8183  117575  387413
    8193  116769  388856
    8203  116597  389765
    8213  116587  391436
    8223  115912  390039
    8233  116118  392733
    8243  116897  396900
    8253  116781  394427
    8263  116134  396974
    8273  116202  398288
    8283  115844  398381
    8293  115151  396827
    8303  116022  400233
    8313  115760  398596
    8313.5  118597  408273
    8314  119490  411266
    8314.5  119859  412448
    8315  119845  412312
    8315.5  119966  412467
    8316  120740  415020
    8316.5  120253  413092
    8317  120387  413462
    8317.5  120416  413394
    8318  120258  412535
    8318.5  119909  411212
    8319  120278  412191
    8319.5  120395  412385
    8320  119020  407275
    8320.5  120497  411884
    8321  120304  410791
    8321.5  120313  410409
    8322  120215  409580
    8322.5  120196  408917
    8323  120134  408149
    8323.5  119904  406732
    8324  120240  407165
    8324.5  120180  405990
    8325  119740  403496
    8325.5  120071  403512
    8326  120014  401838
    8326.5  120150  400565
    8327  120093  398373
    8327.5  119848  395109
    8328  119727  391705
    8328.5  119366  386188
    8329  119556  380924
    8329.5  119066  370346
    8330  118368  352422
    8330.5  117755  328119
    8331  116766  294731
    8331.5  114542  258279
    8332  110815  224157
    8332.5  108684  199395
    8333  108023  180964
    8333.5  116075  178944
    8334  132853  194617
    8334.5  141499  199909
    8335  136359  187167
    8335.5  129576  173521
    8336  125296  163580
    8336.5  122798  154888
    8337  121250  146520
    8337.5  120393  138438
    8338  120280  132315
    8338.5  120475  126914
    8339  120033  121753
    8339.5  120051  117141
    8340  119719  112352
    8340.5  119791  106680
    8341  120660  101672
    8341.5  120096  94356.1
    8342  120143  87713.1
    8342.5  120747  80616.1
    8343  120374  73496.1
    8343.5  120424  66564.1
    8344  120094  60867.1
    8344.5  119851  54427.1
    8345  120287  50039.1
    8345.5  120098  45459.1
    8346  120284  42139.1
    8346.5  120518  39544.1
    8347  120147  37714.1
    8347.5  120113  36598.1
    8348  120378  36276.1
    8348.5  120446  36185.1
    8349  120189  36239.1
    8349.5  120517  36812.1
    8350  120143  37160.1
    8350.5  120001  37819.1
    8351  120543  38628.1
    8351.5  120425  39172.1
    8352  120215  39348.1
    8352.5  120414  39368.1
    8353  120398  39020.1
    8353.5  120357  38190.1
    8354  120282  37083.1
    8354.5  120142  35627.1
    8355  119358  34307.1
    8355.5  120532  33507.1
    8356  120438  32811.1
    8356.5  120759  32562.1
    8357  120507  32456.1
    8357.5  120593  32817.1
    8358  120564  33228.1
    8358.98  120365  34479.1
    8359.99  120087  35248.1
    8361.01  119634  35978.1
    8362.05  120082  37240.1
    8363.11  120012  38716.1
    8364.19  120002  40121.1
    8365.29  120200  41086.1
    8366.41  120127  41553.1
    8367.55  119963  41758.1
    8368.7  120299  41998.1
    8369.88  120058  41566.1
    8371.07  120699  40995.1
    8372.28  120099  39340.1
    8373.52  119931  37615.1
    8374.77  119967  35732.1
    8376.04  120388  34071.1
    8377.33  119706  31909.1
    8378.64  119797  30332.1
    8379.96  120294  29388.1
    8381.31  119600  28966.1
    8382.67  119658  29403.1
    8384.06  119453  30671.1
    8385.46  119857  32480.1
    8386.88  120274  34689.1
    8388.33  120241  36819.1
    8389.78  119985  38507.1
    8391.26  120102  40246.1
    8392.76  120167  41423.1
    8394.28  120040  41988.1
    8395.82  120563  42303.1
    8397.37  119849  41878.1
    8398.95  120012  42082.1
    8400.54  120080  42534.1
    8402.15  119751  42805.1
    8403.78  119508  42534.1
    8405.43  119698  42073.1
    8407.1  119753  41318.1
    8408.79  118745  40308.1
    8410.5  120544  40426.1
    8412.23  120054  39630.1
    8413.97  119873  38574.1
    8415.74  119706  37384.1
    8417.52  119584  36308.1
    8419.32  120094  35517.1
    8421.15  119784  34437.1
    8422.99  119974  33289.1
    8424.84  119998  31962.1
    8426.72  119719  30632.1
    8428.62  119557  29741.1
    8430.54  119269  29255.1
    8432.47  119446  29679.1
    8434.43  119727  30628.1
    8436.4  119480  31890.1
    8438.4  120005  33668.1
    8440.41  119407  35251.1
    8442.44  114176  35420.1
    8444.49  122020  39328.1
    8446.56  121081  40126.1
    8448.65  120764  41517.1
    8450.75  120081  43036.1
    8452.88  119908  45156.1
    8455.02  119323  46965.1
    8457.19  119526  48197.1
    8459.37  120018  48493.1
    8461.57  120220  47869.1
    8463.79  120137  46556.1
    8466.03  119595  44564.1
    8468.29  119723  42878.1
    8470.57  119545  41392.1
    8472.87  120339  40824.1
    8475.18  120192  40712.1
    8477.52  119850  41036.1
    8479.87  120000  41567.1
    8482.25  120135  41326.1
    8484.64  119932  39690.1
    8487.05  120169  37122.1
    8489.48  120056  34328.1
    8491.93  120194  32555.1
    8494.4  119802  31429.1
    8496.89  120128  31260.1
    8499.39  119808  31059.1
    8501.92  119961  31496.1
    8504.46  119741  32551.1
    8507.03  119881  34500.1
    8509.61  119727  37020.1
    8512.21  119766  40445.1
    8514.83  119197  44253.1
    8517.47  119904  48706.1
    8520.13  119791  52164.1
    8522.81  120153  54108.1
    8525.5  119545  53500.1
    8528.22  119908  51688.1
    8530.95  119784  48930.1
    8533.71  119979  46348.1
    8536.48  119606  44144.1
    8539.27  119864  42778.1
    8542.08  119475  42005.1
    8544.91  119867  42276.1
    8547.76  119784  42526.1
    8550.63  119582  42925.1
    8553.52  120399  43904.1
    8556.42  119679  44367.1
    8559.35  119618  45304.1
    8562.29  119547  45758.1
    8565.25  119752  45282.1
    8568.24  119448  43385.1
    8571.24  119437  41458.1
    8574.26  120037  40128.1
    8577.3  120134  39267.1
    8580.35  120251  38836.1
    8583.43  119483  38628.1
    8586.53  119311  39323.1
    8589.64  119487  40825.1
    8592.78  119342  42896.1
    8595.93  119208  45257.1
    8599.1  119260  47762.1
    8602.29  118960  49511.1
    8605.5  120024  51137.1
    8608.73  119694  51440.1
    8611.98  119500  51327.1
    8615.25  120075  51535.1
    8618.53  119920  51444.1
    8621.84  119759  51550.1
    8625.16  119478  51429.1
    8628.51  119151  51304.1
    8631.87  119444  51124.1
    8635.25  119284  50564.1
    8638.65  119489  50011.1
    8642.07  120043  49794.1
    8645.51  119861  49270.1
    8648.97  119285  48807.1
    8652.44  119640  48760.1
    8655.94  117878  47804.1
    8659.45  120252  48407.1
    8662.99  119620  47652.1
    8666.54  119468  47145.1
    8670.11  119117  46954.1
    8673.7  119725  47671.1
    8677.31  118927  48150.1
    8680.94  120567  49954.1
    8684.59  120483  51270.1
    8688.26  120009  52241.1
    8691.94  119975  52962.1
    8695.65  119793  53155.1
    8699.37  119767  53130.1
    8703.11  119985  53253.1
    8706.88  119226  53512.1
    8710.66  118886  54481.1
    8714.46  118929  55670.1
    8718.27  119253  56482.1
    8722.11  119721  56840.1
    8725.97  120134  57189.1
    8729.85  119327  56808.1
    8733.74  118902  56608.1
    8737.65  118431  56373.1
    8741.59  121551  57678.1
    8745.54  121431  57451.1
    8749.51  120026  56552.1
    8753.5  119920  56376.1
    8757.51  119953  56120.1
    8761.54  120310  56201.1
    8765.58  119551  55713.1
    8769.65  119011  55463.1
    8773.74  119439  55589.1
    8777.84  119360  55780.1
    8781.96  120187  56668.1
    8786.11  119708  57146.1
    8790.27  119295  57880.1
    8794.45  114106  56299.1
    8798.65  122493  61150.1
    8802.87  120615  60517.1
    8807.1  118992  59886.1
    8811.36  120598  60850.1
    8815.64  119837  60577.1
    8819.93  119578  60645.1
    8824.24  119692  61170.1
    8828.58  119890  61943.1
    8832.93  118906  62005.1
    8837.3  119766  62985.1
    8841.69  120041  63547.1
    8846.1  119718  63817.1
    8850.52  119765  64186.1
    8854.97  119242  64239.1
    8859.44  119481  64704.1
    8863.92  116600  63214.1
    8868.42  121015  65531.1
    8872.95  120319  65060.1
    8877.49  120173  64964.1
    8882.05  119476  64309.1
    8886.63  119894  64290.1
    8891.23  119438  63936.1
    8895.85  119393  64023.1
    8900.48  119649  64523.1
    8905.14  119136  64897.1
    8909.81  119708  66041.1
    8914.51  119435  66638.1
    8919.22  118863  66909.1
    8923.95  119185  67501.1
    8928.7  119285  68034.1
    8933.47  119544  68507.1
    8938.26  118985  68449.1
    8943.07  119198  68901.1
    8947.9  119607  69457.1
    8952.74  119692  69921.1
    8957.61  119811  70353.1
    8962.49  119934  70956.1
    8967.4  119976  71288.1
    8972.32  119695  71598.1
    8977.26  119496  71886.1
    8982.22  119418  72137.1
    8987.2  119402  72395.1
    8992.2  119821  72982.1
    8997.21  119554  73067.1
    9002.25  119305  73038.1
    9007.31  119358  73301.1
    9012.38  119211  73350.1
    9017.47  119554  73752.1
    9022.58  119471  73885.1
    9027.72  119711  74349.1
    9032.87  119381  74640.1
    9038.04  120347  75459.1
    9043.23  119907  75506.1
    9048.43  119502  75686.1
    9053.66  119092  75947.1
    9058.9  119405  76573.1
    9064.17  119439  77034.1
    9069.45  119672  77719.1
    9074.76  119656  78010.1
    9080.08  119345  78222.1
    9085.42  119251  78577.1
    9090.78  119542  79375.1
    9096.16  119501  79595.1
    9101.55  119206  79774.1
    9106.97  119253  80415.1
    9112.41  119655  81008.1
    9117.86  119463  81285.1
    9123.33  119541  81781.1
    9128.83  119404  82213.1
    9134.34  119754  82750.1
    9139.87  119684  83048.1
    9145.42  119766  83330.1
    9150.99  119557  83461.1
    9156.58  119978  84024.1
    9162.18  119868  84301.1
    9167.81  119798  84692.1
    9173.45  119360  84733.1
    9179.12  119709  85393.1
    9184.8  119991  86059.1
    9190.5  119721  86300.1
    9196.23  119531  86446.1
    9201.97  119742  86939.1
    9207.72  119913  87542.1
    9213.5  119808  87849.1
    9219.3  120123  88638.1
    9225.11  119459  88605.1
    9230.95  119481  89151.1
    9236.81  119083  89219.1
    9242.68  119104  89745.1
    9248.57  120114  90988.1
    9254.48  119968  91347.1
    9260.41  119361  91296.1
    9266.36  119775  92087.1
    9272.33  119713  92546.1
    9278.32  119655  92873.1
    9284.32  119279  92999.1
    9290.35  119010  93198.1
    9296.39  119984  94461.1
    9302.46  119128  94071.1
    9308.54  119264  94624.1
    9314.64  118959  94855.1
    9320.76  119270  95448.1
    9326.9  118505  95294.1
    9333.06  119627  96590.1
    9339.24  120005  97378.1
    9345.43  118737  96803.1
    9351.65  120138  98374.1
    9357.88  119917  98698.1
    9364.14  119712  98960.1
    9370.41  119513  99257.1
    9376.7  119730  99922.1
    9383.01  119509  100234
    9389.34  118746  100115
    9395.69  120394  101990
    9402.06  120119  102287
    9408.44  120243  102810
    9414.85  119692  102861
    9421.27  120031  103672
    9427.72  119561  103765
    9434.18  119675  104407
    9440.66  119542  104825
    9447.17  119859  105617
    9453.69  119961  106222
    9460.23  119924  106675
    9466.78  119421  106679
    9473.36  119403  107228
    9479.95  119555  107883
    9486.57  119206  108056
    9493.2  119557  108865
    9499.86  119456  109218
    9506.53  119753  110068
    9513.22  119619  110469
    9519.93  120275  111614
    9526.66  120257  112146
    9533.41  120495  112902
    9540.18  120051  113020
    9546.96  119195  112623
    9553.77  119542  113552
    9560.59  119605  114220
    9567.43  119523  114688