File: data/Ni/NiOH2_rt_03.xdi
# XDI/1.0
# Column.1: energy eV
# Column.2: i0
# Column.3: itrans
# Column.4: irefer
# Beamline.name: SSRL 4-1
# Detector.I0: N2 15cm
# Detector.I1: N2 30cm
# Detector.I2: N2 15cm
# Element.edge: K
# Element.symbol: Ni
# Mono.d_spacing: 3.13550
# Mono.name: Si(111)
# Mono.notes: unfocused, detuned 25%,counter clockwise
# Sample.formula: Ni_OH_2
# Sample.name: Ni(OH)2   nickel hydroxide
# Sample.prep: powder, mixed 1:100 with B(OH)3 by wt
# Sample.reference: none
# Sample.temperature: room temperature
# Scan.start_time: 1997-01-17 15:07:08
# ///
#    Note: mono d_spacing is nominal!
#     exafs to K17
#     435  E XMU XMUR I0
#-------------
#   energy   i0   itrans  irefer
    8110  218864  176692  500888
    8120  218395  177410  504425
    8130  218234  178397  508664
    8140  217993  179334  513090
    8150  217794  180278  517669
    8160  217492  181142  522428
    8170  217031  181874  527268
    8180  217054  183029  532679
    8190  216303  183506  537418
    8200  215835  184228  542437
    8210  215487  185046  547790
    8220  215339  186032  553219
    8230  214929  186801  558820
    8240  214316  187413  563779
    8250  214041  188278  569574
    8260  213462  188886  574481
    8270  212900  189490  579722
    8280  211671  189501  583591
    8290  211445  190376  589312
    8300  210637  190660  595890
    8310  211418  192433  597948
    8310.5  211624  192675  599469
    8311  211360  192505  599811
    8311.5  211484  192667  600849
    8312  211288  192534  601019
    8312.5  211075  192417  601602
    8313  210956  192342  602063
    8313.5  210938  192373  602522
    8314  210897  192353  603054
    8314.5  210989  192491  603777
    8315  210838  192402  604069
    8315.5  211013  192636  604546
    8316  210821  192524  604483
    8316.5  211176  192882  605348
    8317  211264  193014  605804
    8317.5  211061  192894  605707
    8318  210945  192856  605621
    8318.5  210581  192542  605141
    8319  210908  192886  605782
    8319.5  210462  192521  605165
    8320  210153  192281  604429
    8320.5  209426  191653  602991
    8321  208833  191122  601653
    8321.5  208129  190512  600141
    8322  206641  189220  596999
    8322.5  205515  188230  594757
    8323  204481  187333  592847
    8323.5  203304  186303  590969
    8324  202153  185299  588619
    8324.5  201793  185029  587797
    8325  201614  184894  586874
    8325.5  202186  185445  586964
    8326  202945  186121  587215
    8326.5  204328  187377  588436
    8327  205511  188476  589156
    8327.5  207357  190145  589554
    8328  208368  191119  587703
    8328.5  209705  192374  585174
    8329  210478  193057  580003
    8329.5  211155  193726  573895
    8330  211366  193912  564154
    8330.5  211386  193912  552974
    8331  211137  193607  538319
    8331.5  211367  193744  523042
    8332  210913  193260  506488
    8332.5  211452  193695  487628
    8333  210771  193038  463932
    8333.5  210725  192968  424971
    8334  210375  192665  386513
    8334.5  210556  192805  353251
    8335  210113  192419  325884
    8335.5  210186  192421  306324
    8336  209872  191950  287939
    8336.5  210090  191898  275335
    8337  209475  190923  261860
    8337.5  209655  190602  251193
    8338  209297  189619  239614
    8338.5  209439  188873  227633
    8339  209133  187617  216181
    8339.5  209186  186321  203638
    8340  209184  184993  192778
    8340.5  209237  183329  180941
    8341  209628  181751  169535
    8341.5  209355  179628  158559
    8342  209353  177381  146390
    8342.5  209235  175232  135541
    8343  209545  173041  123441
    8343.5  209441  170603  112223
    8344  209433  167984  100903
    8344.5  209374  164972  89690.1
    8345  209619  162307  80616.1
    8345.5  209919  158881  70891.1
    8346  209644  155238  62915.1
    8346.5  209840  151759  55703.1
    8347  209741  148489  49948.1
    8347.5  209599  145622  45370.1
    8348  209795  143200  41547.1
    8348.5  209429  141283  39103.1
    8349  209434  140143  37429.1
    8349.5  209304  139616  36596.1
    8350  209309  139590  36282.1
    8350.5  209569  140122  36435.1
    8351  209217  140475  36727.1
    8351.5  209207  141437  37314.1
    8352  208870  142316  37853.1
    8352.5  209045  143931  38548.1
    8353  209309  145756  39143.1
    8353.5  208957  147215  39420.1
    8354  208893  148965  39510.1
    8354.5  208661  150262  39305.1
    8355  208858  152003  38917.1
    8355.5  208893  153315  38374.1
    8356  208890  154546  37685.1
    8356.5  208895  155614  37044.1
    8357  208662  156367  36530.1
    8357.5  208774  157406  36214.1
    8358  208575  158008  36112.1
    8358.5  208589  158700  36268.1
    8359  208820  159375  36636.1
    8359.5  208593  159600  37058.1
    8360  208653  159913  37658.1
    8360.5  208810  160126  38224.1
    8361  208823  160123  38836.1
    8361.5  208703  159932  39340.1
    8362  208703  159745  39901.1
    8362.5  208885  159687  40548.1
    8363  208531  159234  41062.1
    8363.5  208730  159222  41782.1
    8364  208321  158832  42319.1
    8364.5  208709  159140  43131.1
    8365  208904  159400  43867.1
    8365.5  208619  159380  44478.1
    8366  208449  159541  45095.1
    8366.5  208492  159860  45602.1
    8367  208539  160291  46119.1
    8367.5  208766  160855  46555.1
    8368  208499  161098  46852.1
    8368.5  208455  161491  47118.1
    8369  208335  161812  47282.1
    8369.5  208496  162424  47474.1
    8370  208248  162676  47490.1
    8370.88  208425  163625  47406.1
    8371.78  208444  164391  46926.1
    8372.71  208199  164817  46006.1
    8373.65  208440  165474  44889.1
    8374.6  208378  165723  43340.1
    8375.58  208246  165735  41590.1
    8376.58  208458  165822  39873.1
    8377.6  208436  165525  38026.1
    8378.64  208482  165080  36270.1
    8379.69  208387  164393  34674.1
    8380.76  208523  163867  33547
    8381.85  208745  163349  32909.1
    8382.97  208219  162224  32740
    8384.1  208363  161587  33265
    8385.25  208480  160897  34315
    8386.42  208461  160121  35798
    8387.61  208343  159343  37572
    8388.81  208461  158826  39492
    8390.04  208437  158287  41364
    8391.28  208492  157890  43079.9
    8392.55  208522  157578  44533.9
    8393.83  208318  157154  45605.9
    8395.13  208457  157125  46314.9
    8396.46  208549  157214  46648.9
    8397.8  208797  157620  46828.8
    8399.16  208714  157967  47025.8
    8400.54  208770  158504  47433.8
    8401.94  208857  159103  47958.8
    8403.35  209070  159807  48384.7
    8404.78  208996  160314  48420.7
    8406.24  209021  160805  48100.7
    8407.72  209150  161295  47503.7
    8409.21  209281  161778  46848.7
    8410.72  209305  162136  46290.6
    8412.25  209442  162560  45766.6
    8413.81  209729  163107  45053.5
    8415.38  209724  163431  44021.5
    8416.96  209488  163546  42851.5
    8418.57  209765  164077  41819.5
    8420.2  209952  164585  40821.4
    8421.84  210105  165087  39782.4
    8423.51  210437  165760  38652.4
    8425.19  210464  166156  37318.3
    8426.89  210486  166498  36033.3
    8428.62  210651  166896  34958.2
    8430.36  211184  167477  34380.2
    8432.12  210817  167312  34231.2
    8433.9  211041  167584  34847.1
    8435.7  211133  167707  36011.1
    8437.51  211408  167990  37653
    8439.35  211649  168294  39546
    8441.21  211428  168310  41616
    8443.08  211722  168797  43817.9
    8444.97  212256  169506  45872.9
    8446.89  212191  169736  47463.8
    8448.82  212201  170068  49170.8
    8450.77  212295  170455  51483.7
    8452.74  212914  171203  54311.7
    8454.73  213057  171442  57081.6
    8456.74  212889  171281  59124.6
    8458.77  213317  171464  60237.5
    8460.81  213514  171357  60094.5
    8462.88  213607  171174  58922.4
    8464.96  213897  171227  57168.3
    8467.07  214006  171322  55046.3
    8469.19  214145  171525  52960.2
    8471.33  214530  171959  51345.2
    8473.49  214811  172307  50393.1
    8475.67  215125  172661  50267
    8477.87  215194  172787  50733
    8480.09  215296  173000  51326
    8482.33  215699  173544  51361.9
    8484.58  215803  173925  50002.8
    8486.85  215964  174431  47302.8
    8489.15  216332  175173  44091.7
    8491.47  216606  175893  41446.6
    8493.8  216978  176770  39839.6
    8496.15  216867  177302  39059.5
    8498.52  217101  178130  38929.4
    8500.91  217833  179332  39343.4
    8503.32  217778  179873  40245.3
    8505.75  218050  180554  42058.2
    8508.19  218378  181152  44863.1
    8510.66  218608  181540  48646.1
    8513.15  218898  181841  53457
    8515.65  219260  182136  59132.9
    8518.17  219490  182350  65083.9
    8520.71  219875  182773  70275.8
    8523.27  220126  183154  73271.7
    8525.86  220249  183490  73430.6
    8528.46  220434  183909  71206.6
    8531.07  220864  184507  67714.5
    8533.71  221214  185023  64072.4
    8536.37  221510  185512  61029.3
    8539.04  221857  185977  58819.3
    8541.74  222111  186390  57605.1
    8544.45  222508  186917  57397.1
    8547.19  222784  187418  57899
    8549.93  223184  188125  58802.9
    8552.71  223355  188737  59805.8
    8555.5  223685  189560  61073.8
    8558.31  224041  190422  62705.7
    8561.14  224558  191292  64247.6
    8563.99  224830  191827  64673.5
    8566.85  224632  191849  63273.4
    8569.74  225372  192621  60835.3
    8572.64  225621  192999  58178.2
    8575.57  225884  193452  56280.1
    8578.51  226371  194147  55209
    8581.47  226419  194502  54706.9
    8584.45  226986  195345  55152.9
    8587.45  227439  196081  56549.7
    8590.47  227720  196614  59027.7
    8593.51  228098  197215  62401.6
    8596.57  228599  197925  66462.4
    8599.64  228762  198367  70410.4
    8602.74  229203  199057  73870.3
    8605.85  229381  199546  76297.2
    8608.99  229635  200131  77605.1
    8612.14  229903  200775  78043
    8615.31  230210  201510  78240.8
    8618.5  230430  202245  78576.7
    8621.72  229443  201986  78609.6
    8624.94  231054  204009  79564.5
    8628.19  230762  204243  79767.4
    8631.45  232807  206508  80440.3
    8634.74  233210  207247  80079.2
    8638.05  233592  207906  79385.1
    8641.37  234267  208833  78761
    8644.71  234402  209298  78174.9
    8648.08  234575  209855  77857.8
    8651.46  234998  210596  77813.7
    8654.86  235583  211423  77806.5
    8658.28  235925  212079  77599.4
    8661.72  236451  212832  77276.3
    8665.17  236936  213533  76767.2
    8668.65  237460  214311  76466.1
    8672.15  237678  214801  76769
    8675.66  237871  215319  77895.9
    8679.19  238748  216489  79971.7
    8682.75  238913  217015  82277.6
    8686.32  239301  217803  84929.5
    8689.92  239287  218278  87275.4
    8693.52  240084  219536  89187.2
    8697.16  240696  220679  90199.1
    8700.81  241100  221609  90637
    8704.47  241413  222414  91264.9
    8708.16  241692  223134  92741.8
    8711.86  242646  224429  95423.6
    8715.58  242878  225099  98103.5
    8719.34  242849  225515  99764.4
    8723.1  243860  226877  100789
    8726.88  244162  227627  101333
    8730.68  244667  228571  102020
    8734.5  244827  229186  102364
    8738.34  245650  230410  102822
    8742.2  246033  231217  102973
    8746.08  246936  232517  103267
    8749.97  247077  233087  103208
    8753.89  247789  234184  103380
    8757.82  248190  235002  103433
    8761.77  248626  235880  103619
    8765.75  249009  236720  103838
    8769.74  249475  237637  104134
    8773.75  249699  238428  104491
    8777.78  250491  239741  105412
    8781.83  251239  241020  106762
    8785.9  251518  241860  108465
    8789.99  252245  243132  110945
    8794.09  252382  243776  113318
    8798.22  252950  244859  115625
    8802.36  253038  245473  117179
    8806.53  253966  246882  118584
    8810.7  254500  247895  119472
    8814.91  254825  248691  120221
    8819.13  255133  249491  121160
    8823.37  254839  249697  122150
    8827.63  251296  246776  122078
    8831.91  256045  251941  126177
    8836.2  256186  252608  128094
    8840.52  253550  250445  128077
    8844.85  259289  256717  132250
    8849.21  259650  257612  133804
    8853.59  259880  258412  135267
    8857.97  260132  259254  136539
    8862.38  260571  260355  137730
    8866.82  261321  261656  138609
    8871.27  261723  262660  139132
    8875.74  262416  263983  139715
    8880.22  262693  264851  139903
    8884.73  263280  266047  140130
    8889.26  263649  267043  140287
    8893.8  264335  268366  140949
    8898.37  264808  269475  142070
    8902.95  265429  270710  144019
    8907.55  265946  271865  146617
    8912.17  266761  273329  149573
    8916.81  266771  273924  151835
    8921.47  267527  275325  154195
    8926.15  267774  276164  155971
    8930.85  268658  277691  158013
    8935.57  268611  278254  159361
    8940.3  269083  279350  160942
    8945.06  269506  280393  162502
    8949.83  270438  281958  164494
    8954.62  270858  283017  166274
    8959.43  271627  284471  168265
    8964.26  272258  285795  170296
    8969.12  272455  286641  172268
    8973.98  272854  287770  174292
    8978.87  273417  289024  176265
    8983.78  274048  290378  178208
    8988.71  274547  291559  179891
    8993.65  274855  292562  181337
    8998.61  275942  294383  183283
    9003.6  275880  295008  184506
    9008.6  276542  296424  186112
    9013.63  276807  297392  187315
    9018.67  277857  299227  189105
    9023.73  278473  300571  190777
    9028.8  278706  301506  192390
    9033.9  278887  302415  194160
    9039.02  279992  304328  196657
    9044.16  280414  305479  198701
    9049.31  280534  306316  200717
    9054.49  280946  307462  203047
    9059.68  281143  308371  205263
    9064.89  281542  309572  207643
    9070.12  282333  311181  210188
    9075.38  283068  312726  212645
    9080.65  282716  313091  214413
    9085.93  282201  313266  216162
    9091.24  284047  316079  219645
    9096.57  284948  317847  222362
    9101.91  283666  317185  223449
    9107.28  286010  320536  227437
    9112.66  285656  320909  229368
    9118.07  287532  323796  233053
    9123.49  287054  324018  234877
    9128.93  287345  325158  237257
    9134.39  288349  327050  240025
    9139.87  289256  328855  242592
    9145.37  290143  330656  245055
    9150.89  289915  331154  246577
    9156.43  290496  332611  248907
    9161.98  290993  333936  251162
    9167.56  291482  335279  253659
    9173.15  292075  336778  256464
    9178.76  292540  338121  259254
    9184.4  292720  339120  261723
    9190.05  293352  340692  264537
    9195.72  294264  342562  267532
    9201.41  293596  342628  269169
    9207.11  294244  344226  272090
    9212.84  294881  345779  275141
    9218.59  295412  347217  278237
    9224.35  295923  348685  281413
    9230.13  296507  350224  284704
    9235.94  296684  351248  287560
    9241.76  295324  350481  288919
    9247.61  297552  353951  293746
    9253.47  298092  355447  296994
    9259.35  298222  356477  299885
    9265.25  297880  356854  302224
    9271.17  299575  359791  306704
    9277.1  299994  361175  309872
    9283.06  300454  362566  313032
    9289.03  300730  363805  316042
    9295.03  300892  364847  318805
    9301.04  301514  366482  322052
    9307.08  302150  368133  325353
    9313.13  302959  370011  328913
    9319.2  303089  371075  331804
    9325.29  303248  372158  334797
    9331.4  303782  373694  338242
    9337.52  304338  375286  341743
    9343.67  304713  376680  345206
    9349.84  305043  377980  348614
    9356.02  305518  379497  352276
    9362.23  305831  380776  355742
    9368.45  306449  382513  359646
    9374.69  306700  383756  363110
    9380.95  307148  385237  366820
    9387.24  307582  386737  370627
    9393.53  308127  388390  374654
    9399.86  308386  389638  378315
    9406.19  309126  391535  382660
    9412.55  309031  392374  385982
    9418.92  310008  394553  390752
    9425.32  310334  395903  394763
    9431.74  310527  397360  398030
    9438.17  311353  399173  403319
    9444.62  311254  400028  406866
    9451.09  311777  401659  411242