File: data/Ni/NiOH2_rt_02.xdi
# XDI/1.0
# Column.1: energy eV
# Column.2: i0
# Column.3: itrans
# Column.4: irefer
# Beamline.name: SSRL 4-1
# Detector.I0: N2 15cm
# Detector.I1: N2 30cm
# Detector.I2: N2 15cm
# Element.edge: K
# Element.symbol: Ni
# Mono.d_spacing: 3.13550
# Mono.name: Si(111)
# Mono.notes: unfocused, detuned 25%,counter clockwise
# Sample.formula: Ni_OH_2
# Sample.name: Ni(OH)2   nickel hydroxide
# Sample.prep: powder, mixed 1:100 with B(OH)3 by wt
# Sample.reference: none
# Sample.temperature: room temperature
# Scan.start_time: 1997-01-17 15:07:08
# ///
#    Note: mono d_spacing is nominal!
#     exafs to K17
#     435  E XMU XMUR I0
#-------------
#   energy   i0   itrans  irefer
    8110  220369  177337  500822
    8120  220427  178482  504890
    8130  219804  179089  509143
    8140  219782  180185  513844
    8150  219251  180873  518440
    8160  219212  181967  523587
    8170  218723  182703  528547
    8180  218423  183575  533710
    8190  218285  184598  539254
    8200  217646  185186  544390
    8210  217239  185967  549791
    8220  217163  187023  555639
    8230  216696  187743  561107
    8240  216267  188479  566579
    8250  215775  189190  572347
    8260  215085  189700  577103
    8270  214793  190577  583058
    8280  213340  190396  586440
    8290  213312  191467  592584
    8300  212038  191319  598495
    8310  213105  193368  601387
    8310.5  213304  193615  602551
    8311  213346  193700  603611
    8311.5  213215  193630  604232
    8312  213182  193668  604899
    8312.5  212842  193403  604945
    8313  212676  193306  605231
    8313.5  212991  193633  606548
    8314  212446  193161  606179
    8314.5  212436  193200  606577
    8315  212628  193425  607398
    8315.5  212805  193640  607947
    8316  212740  193637  608289
    8316.5  213052  193990  609085
    8317  212799  193797  608683
    8317.5  212918  193949  609469
    8318  213031  194106  609826
    8318.5  212440  193633  608784
    8319  212546  193773  608992
    8319.5  212275  193565  608549
    8320  211963  193329  607965
    8320.5  211340  192777  606653
    8321  210924  192438  605629
    8321.5  209871  191528  603597
    8322  208833  190628  601188
    8322.5  207327  189295  598289
    8323  206323  188435  596236
    8323.5  205267  187512  594159
    8324  204384  186779  592371
    8324.5  203416  185934  590562
    8325  203312  185852  589728
    8325.5  203830  186363  589766
    8326  204552  187033  589804
    8326.5  205781  188153  591021
    8327  207104  189350  591920
    8327.5  208677  190781  592324
    8328  209832  191876  591053
    8328.5  211256  193182  588726
    8329  212101  194016  583950
    8329.5  212569  194430  577605
    8330  213463  195245  568864
    8330.5  213246  195005  557505
    8331  213436  195110  543282
    8331.5  213380  194984  527574
    8332  212999  194570  511201
    8332.5  212857  194392  492468
    8333  212730  194255  472342
    8333.5  212787  194267  436634
    8334  212461  193960  397737
    8334.5  212317  193841  362130
    8335  212281  193817  333784
    8335.5  211915  193457  312305
    8336  211970  193341  293369
    8336.5  211912  193042  279633
    8337  211701  192462  266338
    8337.5  211529  191822  255061
    8338  211324  191009  243698
    8338.5  211337  190163  231434
    8339  211327  189212  220319
    8339.5  211217  187840  207593
    8340  211134  186460  196507
    8340.5  211207  184845  184631
    8341  211352  183109  172839
    8341.5  211196  181044  161608
    8342  211386  178991  149607
    8342.5  211318  176892  138863
    8343  211392  174492  126421
    8343.5  211561  172269  115177
    8344  211387  169506  103582
    8344.5  211734  166887  92498.1
    8345  211560  163894  82915.1
    8345.5  212068  160728  73180.1
    8346  212114  157299  64991.1
    8346.5  211951  153446  57303.1
    8347  211980  150192  51313.1
    8347.5  211728  147123  46459.1
    8348  211733  144449  42343.1
    8348.5  211781  142712  39813.1
    8349  211711  141375  37940.1
    8349.5  211564  140721  36989.1
    8350  211666  140691  36607.1
    8350.5  211512  140889  36612.1
    8351  211418  141382  36917.1
    8351.5  211038  142024  37401.1
    8352  211414  143349  38062.1
    8352.5  211300  144722  38714.1
    8353  210941  146127  39233.1
    8353.5  211286  148058  39685.1
    8354  211149  149790  39810.1
    8354.5  210886  151097  39648.1
    8355  211088  152868  39298.1
    8355.5  211053  154185  38760.1
    8356  211175  155549  38113.1
    8356.5  210793  156354  37382.1
    8357  211231  157605  36948.1
    8357.5  211024  158413  36531.1
    8358  211345  159443  36476.1
    8358.5  210969  159867  36521.1
    8359  211159  160562  36858.1
    8359.5  210730  160660  37224.1
    8360  211425  161493  37936.1
    8360.5  211030  161326  38420.1
    8361  210753  161134  38977.1
    8361.5  211031  161262  39563.1
    8362  210911  160995  40106.1
    8362.5  210967  160832  40719.1
    8363  210945  160626  41303.1
    8363.5  210896  160425  41965.1
    8364  210870  160318  42583.1
    8364.5  210847  160289  43309.1
    8365  211081  160545  44062.1
    8365.5  210882  160581  44705.1
    8366  210796  160797  45357.1
    8366.5  210787  161083  45876.1
    8367  210960  161577  46428.1
    8367.5  210860  161899  46815.1
    8368  210974  162423  47206.1
    8368.5  210731  162676  47441.1
    8369  210758  163113  47656.1
    8369.5  210780  163634  47840.1
    8370  210882  164132  47939.1
    8370.88  210798  164901  47824.1
    8371.78  210606  165498  47330.1
    8372.71  210493  166041  46461.1
    8373.65  210678  166647  45346.1
    8374.6  210663  166979  43816.1
    8375.58  210682  167135  42113.1
    8376.58  210668  167051  40328.1
    8377.6  210585  166728  38446.1
    8378.64  210723  166371  36691.1
    8379.69  210550  165639  35042.1
    8380.76  210799  165169  33878.1
    8381.85  210696  164392  33141
    8382.97  210752  163727  33022
    8384.1  210563  162829  33459
    8385.25  210690  162162  34487
    8386.42  210525  161269  35929
    8387.61  210717  160713  37762
    8388.81  210729  160095  39667.9
    8390.04  210822  159631  41586.9
    8391.28  210731  159128  43304.9
    8392.55  210777  158802  44796.9
    8393.83  210668  158458  45925.9
    8395.13  210840  158444  46678.9
    8396.46  210973  158557  47041.9
    8397.8  211082  158838  47199.8
    8399.16  211073  159229  47398.8
    8400.54  211345  159933  47846.8
    8401.94  211151  160322  48309.8
    8403.35  211034  160786  48675.8
    8404.78  211326  161545  48827.7
    8406.24  211290  162018  48507.7
    8407.72  211244  162399  47870.7
    8409.21  211519  163003  47245.6
    8410.72  211962  163664  46778.6
    8412.25  211612  163709  46137.6
    8413.81  211924  164289  45442.5
    8415.38  212011  164678  44428.5
    8416.96  212011  164993  43309.5
    8418.57  211854  165185  42166.5
    8420.2  212234  165848  41197.4
    8421.84  212278  166261  40126.4
    8423.51  212460  166800  38962.4
    8425.19  212618  167296  37652.3
    8426.89  212697  167678  36368.3
    8428.62  212960  168178  35283.2
    8430.36  212965  168357  34593.2
    8432.12  213227  168686  34515.2
    8433.9  213293  168827  35077.1
    8435.7  213584  169113  36270.1
    8437.51  213672  169251  37873
    8439.35  213900  169542  39762
    8441.21  213794  169640  41861.9
    8443.08  214145  170159  44082.9
    8444.97  214335  170590  46103.9
    8446.89  214327  170905  47734.8
    8448.82  214739  171546  49523.8
    8450.77  214882  171984  51846.7
    8452.74  215224  172523  54610.7
    8454.73  215108  172551  57343.6
    8456.74  215338  172728  59561.6
    8458.77  215590  172769  60690.5
    8460.81  215725  172611  60582.4
    8462.88  215786  172369  59418.4
    8464.96  216066  172415  57652.4
    8467.07  216550  172786  55635.3
    8469.19  216421  172770  53460.3
    8471.33  216841  173263  51824.2
    8473.49  217129  173610  50823.1
    8475.67  217398  173910  50640.1
    8477.87  217575  174146  51122
    8480.09  217526  174230  51690.9
    8482.33  217749  174596  51725.9
    8484.58  218150  175228  50517.8
    8486.85  218680  176026  47926.7
    8489.15  218638  176451  44589.7
    8491.47  218909  177187  41874.6
    8493.8  219141  177934  40173.6
    8496.15  219407  178788  39426.5
    8498.52  219614  179582  39264.5
    8500.91  219983  180521  39601.4
    8503.32  219940  181061  40476.3
    8505.75  220371  181879  42299.2
    8508.19  220535  182346  45046.1
    8510.66  220846  182791  48816.1
    8513.15  221222  183173  53644
    8515.65  221511  183397  59325.9
    8518.17  221725  183574  65300.9
    8520.71  222229  184085  70618.8
    8523.27  222272  184320  73690.7
    8525.86  222764  184951  74103.6
    8528.46  222924  185348  71934.6
    8531.07  223335  185951  68446.5
    8533.71  223435  186273  64680.4
    8536.37  224101  187036  61673.3
    8539.04  224004  187155  59287.3
    8541.74  224560  187796  58098.2
    8544.45  224900  188276  57834.1
    8547.19  225175  188775  58322
    8549.93  225400  189335  59176.9
    8552.71  225742  190097  60227.8
    8555.5  226193  191038  61534.7
    8558.31  226266  191660  63074.7
    8561.14  226669  192454  64630.6
    8563.99  226672  192756  65018.5
    8566.85  226935  193157  63807.4
    8569.74  227563  193806  61341.3
    8572.64  227606  194002  58593.2
    8575.57  227886  194482  56672.1
    8578.51  228386  195189  55563
    8581.47  228676  195754  55090.9
    8584.45  229124  196477  55472.9
    8587.45  229413  197070  56793.8
    8590.47  229395  197387  59162.6
    8593.51  230137  198306  62618.5
    8596.57  230785  199129  66724.5
    8599.64  230884  199527  70702.4
    8602.74  231364  200265  74245.3
    8605.85  231414  200653  76687.2
    8608.99  231842  201361  78091.1
    8612.14  232285  202156  78623
    8615.31  232360  202695  78734.9
    8618.5  232331  203210  78979.7
    8621.72  231489  203032  79045.6
    8624.94  233394  205351  80115.5
    8628.19  232419  205007  80102.4
    8631.45  234598  207400  80825.3
    8634.74  235279  208372  80565.2
    8638.05  235715  209058  79890.1
    8641.37  235805  209473  79064
    8644.71  236189  210172  78550.9
    8648.08  236922  211184  78397.8
    8651.46  237141  211780  78294.7
    8654.86  237507  212443  78210.5
    8658.28  238129  213319  78099.4
    8661.72  238183  213666  77623.3
    8665.17  238899  214591  77194.2
    8668.65  239541  215437  76900.1
    8672.15  239570  215769  77126
    8675.66  240043  216551  78330.9
    8679.19  240392  217217  80215.7
    8682.75  240816  217985  82616.6
    8686.32  241334  218909  85319.5
    8689.92  241720  219726  87828.4
    8693.52  242055  220592  89623.3
    8697.16  243044  222063  90790.1
    8700.81  243109  222694  91093
    8704.47  243438  223528  91739.9
    8708.16  244002  224519  93303.8
    8711.86  244558  225494  95841.6
    8715.58  245046  226377  98631.5
    8719.34  245211  226972  100413
    8723.1  245873  228042  101336
    8726.88  246608  229180  102035
    8730.68  246906  229941  102659
    8734.5  247028  230530  102995
    8738.34  247898  231803  103478
    8742.2  248028  232407  103548
    8746.08  248787  233555  103772
    8749.97  248988  234179  103729
    8753.89  249577  235158  103842
    8757.82  250037  236037  103922
    8761.77  250582  237025  104148
    8765.75  251115  238001  104432
    8769.74  251548  238929  104725
    8773.75  251667  239573  105020
    8777.78  252322  240777  105887
    8781.83  253014  242039  107220
    8785.9  253325  242895  108925
    8789.99  253643  243777  111234
    8794.09  254065  244710  113742
    8798.22  254870  246032  116185
    8802.36  255043  246718  117788
    8806.53  255371  247542  118927
    8810.7  255863  248509  119797
    8814.91  256794  249906  120836
    8819.13  256811  250443  121640
    8823.37  256665  250805  122707
    8827.63  253264  248027  122698
    8831.91  257200  252403  126408
    8836.2  258091  253799  128701
    8840.52  254526  250736  128240
    8844.85  260670  257376  132603
    8849.21  260856  258124  134079
    8853.59  261459  259264  135733
    8857.97  262125  260507  137218
    8862.38  262478  261462  138289
    8866.82  262844  262469  139076
    8871.27  263271  263512  139605
    8875.74  263487  264334  139931
    8880.22  264102  265556  140308
    8884.73  264893  266973  140646
    8889.26  265134  267826  140732
    8893.8  265264  268582  141092
    8898.37  266538  270504  142617
    8902.95  266621  271193  144270
    8907.55  267049  272264  146825
    8912.17  267874  273709  149773
    8916.81  268613  275074  152468
    8921.47  268757  275832  154481
    8926.15  269428  277124  156509
    8930.85  269566  277864  158119
    8935.57  269711  278639  159575
    8940.3  270645  280203  161444
    8945.06  270743  280917  162806
    8949.83  271951  282796  164982
    8954.62  272252  283725  166677
    8959.43  273062  285214  168683
    8964.26  273168  285973  170381
    8969.12  273746  287206  172606
    8973.98  274326  288547  174755
    8978.87  274850  289746  176708
    8983.78  275332  290923  178544
    8988.71  275996  292305  180350
    8993.65  276068  293022  181618
    8998.61  276561  294238  183196
    9003.6  277413  295827  185005
    9008.6  278044  297190  186596
    9013.63  278320  298200  187829
    9018.67  279029  299691  189387
    9023.73  279129  300464  190695
    9028.8  279786  301894  192620
    9033.9  279960  302766  194370
    9039.02  280806  304368  196666
    9044.16  281260  305567  198734
    9049.31  281723  306763  200988
    9054.49  282006  307786  203257
    9059.68  283046  309617  206072
    9064.89  282546  309852  207794
    9070.12  283119  311190  210170
    9075.38  283444  312274  212309
    9080.65  283282  312884  214256
    9085.93  283315  313658  216415
    9091.24  284518  315716  219372
    9096.57  286015  318178  222582
    9101.91  284873  317690  223788
    9107.28  286749  320520  227411
    9112.66  286723  321264  229589
    9118.07  288332  323858  233065
    9123.49  288041  324304  235058
    9128.93  288207  325293  237323
    9134.39  289355  327349  240226
    9139.87  289809  328641  242418
    9145.37  290405  330128  244643
    9150.89  291182  331763  247002
    9156.43  291562  333025  249183
    9161.98  292195  334572  251632
    9167.56  292720  335952  254144
    9173.15  292950  336995  256594
    9178.76  293386  338322  259371
    9184.4  293840  339658  262095
    9190.05  294379  341078  264792
    9195.72  294789  342387  267350
    9201.41  295127  343616  269898
    9207.11  295789  345223  272823
    9212.84  295881  346129  275364
    9218.59  296543  347709  278630
    9224.35  296686  348783  281446
    9230.13  297426  350514  284884
    9235.94  297738  351737  287907
    9241.76  297129  351874  290001
    9247.61  298711  354577  294211
    9253.47  299301  356195  297560
    9259.35  299257  356998  300282
    9265.25  299152  357720  302909
    9271.17  301072  360925  307619
    9277.1  301303  362069  310596
    9283.06  301619  363339  313639
    9289.03  302087  364742  316790
    9295.03  302758  366435  320140
    9301.04  302837  367449  322843
    9307.08  302930  368438  325567
    9313.13  303611  370171  329001
    9319.2  304377  371987  332562
    9325.29  304619  373200  335655
    9331.4  305330  374996  339338
    9337.52  305694  376328  342686
    9343.67  306411  378115  346456
    9349.84  306383  379021  349506
    9356.02  306898  380560  353195
    9362.23  307268  381950  356763
    9368.45  307551  383244  360279
    9374.69  308363  385192  364401
    9380.95  308300  385998  367456
    9387.24  308446  387159  370943
    9393.53  309503  389421  375566
    9399.86  309632  390527  379109
    9406.19  309831  391724  382757
    9412.55  310509  393534  387068
    9418.92  310704  394745  390871
    9425.32  311193  396296  395077
    9431.74  311768  398171  398841
    9438.17  312036  399346  403433
    9444.62  312349  400691  407474
    9451.09  312720  402147  411657