File: data/Ni/NiOH2_rt_01.xdi
# XDI/1.0
# Column.1: energy eV
# Column.2: i0
# Column.3: itrans
# Column.4: irefer
# Beamline.name: SSRL 4-1
# Detector.I0: N2 15cm
# Detector.I1: N2 30cm
# Detector.I2: N2 15cm
# Element.edge: K
# Element.symbol: Ni
# Mono.d_spacing: 3.13550
# Mono.name: Si(111)
# Mono.notes: unfocused, detuned 25%,counter clockwise
# Sample.formula: Ni_OH_2
# Sample.name: Ni(OH)2   nickel hydroxide
# Sample.prep: powder, mixed 1:100 with B(OH)3 by wt
# Sample.reference: none
# Sample.temperature: room temperature
# Scan.start_time: 1997-01-17 15:07:08
# ///
#    Note: mono d_spacing is nominal!
#     exafs to K17
#     435  E XMU XMUR I0
#-------------
#   energy   i0   itrans  irefer
    8110  217540  175297  515936
    8120  217562  176411  518906
    8130  217529  177477  522348
    8140  216630  177845  525297
    8150  216702  179001  529189
    8160  216144  179660  532657
    8170  215739  180426  536659
    8180  215862  181633  540915
    8190  215334  182282  545193
    8200  215182  183242  549654
    8210  214686  184007  554119
    8220  214228  184686  559063
    8230  214017  185614  563645
    8240  213642  186390  568781
    8250  213109  187021  573414
    8260  212489  187567  578124
    8270  212047  188255  582807
    8280  210995  188420  586850
    8290  210915  189404  592171
    8300  209584  189210  597626
    8310  210425  191061  599649
    8310.5  210841  191481  601309
    8311  210877  191564  602526
    8311.5  210989  191699  603344
    8312  210618  191419  603375
    8312.5  210599  191464  604011
    8313  210299  191228  604142
    8313.5  210322  191291  604823
    8314  210221  191239  605146
    8314.5  210217  191275  605618
    8315  209926  191039  605517
    8315.5  210150  191302  606347
    8316  210341  191523  606850
    8316.5  210579  191777  607213
    8317  210598  191835  607250
    8317.5  210255  191571  607069
    8318  210557  191887  607790
    8318.5  210332  191699  607537
    8319  210260  191663  607390
    8319.5  210002  191477  606868
    8320  209743  191302  606419
    8320.5  209545  191150  605694
    8321  208817  190500  604359
    8321.5  207822  189645  602316
    8322  206564  188548  599893
    8322.5  205860  187932  598403
    8323  204463  186716  595873
    8323.5  203260  185691  593825
    8324  202437  184973  592733
    8324.5  201393  184060  590864
    8325  201557  184228  590704
    8325.5  201592  184280  589837
    8326  202095  184736  589496
    8326.5  203431  185956  590511
    8327  204497  186903  590715
    8327.5  206163  188430  591171
    8328  207539  189707  590291
    8328.5  208991  191060  588109
    8329  210161  192173  584402
    8329.5  210656  192613  578952
    8330  211270  193179  571240
    8330.5  211147  193053  561448
    8331  211200  193036  549065
    8331.5  211176  192925  534708
    8332  211329  192989  519368
    8332.5  210875  192511  500933
    8333  211064  192633  480623
    8333.5  210602  192168  443453
    8334  210520  192090  403874
    8334.5  210457  192040  366884
    8335  210125  191749  336661
    8335.5  210357  191929  315180
    8336  210160  191612  294875
    8336.5  209850  191125  280376
    8337  209814  190742  267104
    8337.5  209671  190168  255754
    8338  209512  189440  244460
    8338.5  209394  188534  232240
    8339  209579  187801  221449
    8339.5  209550  186568  208856
    8340  209349  185141  197698
    8340.5  209149  183346  185507
    8341  209358  181708  173911
    8341.5  209771  180194  163337
    8342  209484  177744  150997
    8342.5  209651  175899  140588
    8343  209633  173466  128160
    8343.5  209799  171299  116971
    8344  209859  168792  105460
    8344.5  210061  166142  94249.1
    8345  210254  163517  84769.1
    8345.5  210293  160007  74530.1
    8346  210214  156547  66169.1
    8346.5  210107  152747  58288.1
    8347  210374  149650  52194.1
    8347.5  210382  146703  47181.1
    8348  210201  143749  42760.1
    8348.5  210051  141751  39978.1
    8349  210020  140306  37921.1
    8349.5  210032  139642  36852.1
    8350  209894  139336  36311.1
    8350.5  209833  139531  36259.1
    8351  209737  139943  36500.1
    8351.5  209848  140853  37046.1
    8352  209720  141752  37589.1
    8352.5  209769  143189  38272.1
    8353  209749  144761  38865.1
    8353.5  209622  146337  39272.1
    8354  209583  148067  39470.1
    8354.5  209508  149514  39403.1
    8355  209575  151219  39092.1
    8355.5  209489  152528  38572.1
    8356  209673  153950  37960.1
    8356.5  209579  155014  37282.1
    8357  209562  155957  36743.1
    8357.5  209681  157040  36331.1
    8358  209310  157529  36096.1
    8358.5  209791  158628  36242.1
    8359  209389  158915  36426.1
    8359.5  209586  159522  36874.1
    8360  209592  159854  37434.1
    8360.5  209574  160001  37979.1
    8361  209377  159882  38546.1
    8361.5  209421  159825  39083.1
    8362  209498  159737  39670.1
    8362.5  209484  159517  40260.1
    8363  209511  159346  40836.1
    8363.5  209445  159115  41487.1
    8364  209681  159188  42138.1
    8364.5  209339  158916  42801.1
    8365  209522  159111  43533.1
    8365.5  209432  159203  44207.1
    8366  209496  159505  44900.1
    8366.5  209602  159861  45450.1
    8367  209632  160276  45995.1
    8367.5  209567  160602  46396.1
    8368  209548  161001  46761.1
    8368.5  209403  161309  47020.1
    8369  209273  161636  47214.1
    8369.5  209683  162440  47503.1
    8370  209530  162741  47556.1
    8370.88  209374  163447  47473.1
    8371.78  209287  164133  47041.1
    8372.71  209292  164789  46258.1
    8373.65  209340  165320  45149.1
    8374.6  209350  165684  43671.1
    8375.58  209426  165887  41998.1
    8376.58  209451  165846  40230.1
    8377.6  209434  165603  38375.1
    8378.64  209285  165063  36570.1
    8379.69  209488  164637  34974.1
    8380.76  209426  163932  33715
    8381.85  209479  163281  32954
    8382.97  209622  162682  32786
    8384.1  209511  161843  33165
    8385.25  209541  161097  34120
    8386.42  209485  160267  35527
    8387.61  209198  159339  37244
    8388.81  209636  159063  39224
    8390.04  209661  158545  41133
    8391.28  209652  158075  42862.9
    8392.55  209719  157770  44385.9
    8393.83  209765  157532  45574.9
    8395.13  209978  157529  46368.9
    8396.46  209914  157488  46717.9
    8397.8  209850  157622  46830.8
    8399.16  210172  158254  47095.8
    8400.54  210219  158778  47478.8
    8401.94  210093  159219  47956.8
    8403.35  210158  159800  48367.7
    8404.78  210531  160615  48565.7
    8406.24  210197  160852  48206.7
    8407.72  210287  161354  47631.7
    8409.21  210529  161913  46981.6
    8410.72  210525  162233  46405.6
    8412.25  210733  162715  45893.6
    8413.81  210781  163060  45150.5
    8415.38  211008  163581  44193.5
    8416.96  211304  164129  43141.5
    8418.57  211199  164374  42018.4
    8420.2  211100  164646  40949.4
    8421.84  211466  165301  39960.4
    8423.51  211749  165914  38835.4
    8425.19  211762  166314  37530.3
    8426.89  211830  166683  36242.3
    8428.62  211971  167072  35126.2
    8430.36  212270  167499  34446.2
    8432.12  212160  167528  34258.2
    8433.9  212470  167847  34799.1
    8435.7  212615  168032  35922.1
    8437.51  212850  168291  37510
    8439.35  212977  168488  39355
    8441.21  212934  168642  41457.9
    8443.08  213206  169081  43663.9
    8444.97  213471  169595  45710.9
    8446.89  213630  170008  47373.8
    8448.82  213882  170517  49091.7
    8450.77  214016  170957  51356.7
    8452.74  214179  171355  54046.6
    8454.73  214337  171618  56850.6
    8456.74  214517  171777  59100.6
    8458.77  214701  171773  60292.5
    8460.81  215001  171753  60316.4
    8462.88  215197  171633  59271.4
    8464.96  215456  171659  57558.3
    8467.07  215693  171806  55477.3
    8469.19  215859  172046  53381.2
    8471.33  216202  172463  51692.2
    8473.49  216158  172549  50550.1
    8475.67  216283  172717  50273.1
    8477.87  216884  173300  50820
    8480.09  216918  173440  51421
    8482.33  217078  173763  51505.9
    8484.58  217735  174592  50445.8
    8486.85  217590  174848  47768.8
    8489.15  218086  175678  44569.7
    8491.47  218255  176320  41801.6
    8493.8  218408  177009  40029.6
    8496.15  218856  177992  39275.5
    8498.52  219135  178872  39108.5
    8500.91  219234  179587  39367.4
    8503.32  219181  180119  40192.3
    8505.75  219512  180843  41942.2
    8508.19  219884  181486  44678.2
    8510.66  220373  182080  48422.1
    8513.15  220563  182319  53143
    8515.65  220833  182547  58744
    8518.17  221014  182702  64697.8
    8520.71  221703  183370  70121.8
    8523.27  221774  183616  73307.7
    8525.86  222145  184169  73792.6
    8528.46  222369  184608  71794.6
    8531.07  222685  185129  68330.5
    8533.71  222844  185496  64577.4
    8536.37  223531  186285  61554.3
    8539.04  223749  186671  59221.2
    8541.74  223884  186963  57869.2
    8544.45  224068  187312  57517.1
    8547.19  224413  187862  57992
    8549.93  225268  188933  58993.9
    8552.71  225109  189290  59906.8
    8555.5  225501  190138  61175.7
    8558.31  226009  191116  62821.7
    8561.14  225967  191560  64261.6
    8563.99  226507  192311  64873.5
    8566.85  226996  192898  63816.4
    8569.74  227208  193218  61278.3
    8572.64  227471  193602  58576.2
    8575.57  228024  194279  56670.1
    8578.51  228104  194632  55426
    8581.47  228637  195415  54987.9
    8584.45  228960  196051  55303.8
    8587.45  229302  196673  56581.7
    8590.47  229417  197094  58939.7
    8593.51  229939  197791  62297.5
    8596.57  230351  198440  66265.4
    8599.64  230705  199035  70368.3
    8602.74  231420  199961  73990.3
    8605.85  231755  200584  76562.2
    8608.99  231784  200966  77897.1
    8612.14  232099  201649  78398
    8615.31  232349  202327  78575.8
    8618.5  232704  203183  78944.7
    8621.72  231773  202970  78985.6
    8624.94  233387  204996  79933.5
    8628.19  232678  204880  80016.4
    8631.45  234934  207345  80789.3
    8634.74  235110  207870  80369.2
    8638.05  235658  208677  79746.1
    8641.37  236324  209597  79118
    8644.71  236371  210003  78486.9
    8648.08  236870  210814  78241.8
    8651.46  237300  211542  78187.7
    8654.86  237759  212308  78156.5
    8658.28  238502  213300  78074.4
    8661.72  238524  213607  77603.3
    8665.17  238965  214303  77081.2
    8668.65  239365  214933  76699.1
    8672.15  239880  215668  77040
    8675.66  240287  216376  78191.8
    8679.19  241158  217526  80237.7
    8682.75  240935  217724  82403.6
    8686.32  241139  218355  85005.5
    8689.92  241798  219411  87609.4
    8693.52  242399  220517  89533.2
    8697.16  242958  221602  90557.1
    8700.81  243471  222632  91038
    8704.47  243823  223459  91648.9
    8708.16  244348  224445  93178.7
    8711.86  244914  225390  95676.6
    8715.58  245187  226097  98401.5
    8719.34  245348  226703  100220
    8723.1  246304  228014  101265
    8726.88  246378  228563  101741
    8730.68  247112  229743  102516
    8734.5  247641  230697  103024
    8738.34  248093  231612  103350
    8742.2  248418  232373  103480
    8746.08  248818  233187  103564
    8749.97  249549  234322  103760
    8753.89  250276  235434  103936
    8757.82  250500  236090  103914
    8761.77  250899  236921  104055
    8765.75  251562  238045  104410
    8769.74  252045  238999  104730
    8773.75  252530  240013  105173
    8777.78  252791  240806  105844
    8781.83  253295  241870  107071
    8785.9  254040  243140  108950
    8789.99  254512  244154  111296
    8794.09  254656  244827  113698
    8798.22  255237  245902  116038
    8802.36  255814  246967  117827
    8806.53  256361  248014  119086
    8810.7  256807  248956  119962
    8814.91  257086  249743  120697
    8819.13  257394  250556  121633
    8823.37  257490  251152  122796
    8827.63  253848  248145  122659
    8831.91  258307  253026  126720
    8836.2  258954  254201  128828
    8840.52  255716  251470  128551
    8844.85  261652  257893  132796
    8849.21  261902  258700  134310
    8853.59  262225  259568  135815
    8857.97  263025  260930  137370
    8862.38  263416  261917  138467
    8866.82  263980  263084  139322
    8871.27  264042  263825  139764
    8875.74  264594  264955  140198
    8880.22  265322  266305  140659
    8884.73  265346  266934  140581
    8889.26  266346  268567  141067
    8893.8  266940  269774  141657
    8898.37  267751  271227  142943
    8902.95  267934  272032  144616
    8907.55  268308  273024  147105
    8912.17  268803  274164  149895
    8916.81  269285  275269  152467
    8921.47  270025  276609  154818
    8926.15  270161  277336  156543
    8930.85  271024  278851  158587
    8935.57  270899  279331  159880
    8940.3  271498  280549  161555
    8945.06  272038  281725  163191
    8949.83  273198  283566  165338
    8954.62  273761  284790  167210
    8959.43  274211  285901  169017
    8964.26  274411  286764  170770
    8969.12  275464  288519  173258
    8973.98  275715  289476  175232
    8978.87  276022  290442  177050
    8983.78  276545  291664  178928
    8988.71  277057  292891  180626
    8993.65  277347  293822  182032
    8998.61  278133  295313  183781
    9003.6  278736  296651  185460
    9008.6  279133  297786  186897
    9013.63  279580  298975  188252
    9018.67  279818  299953  189487
    9023.73  280583  301463  191263
    9028.8  281090  302717  193065
    9033.9  281384  303715  194901
    9039.02  281890  304964  196968
    9044.16  282690  306528  199260
    9049.31  283359  307963  201680
    9054.49  284327  309688  204390
    9059.68  283904  309949  206188
    9064.89  283826  310627  208210
    9070.12  284152  311711  210431
    9075.38  284999  313386  212992
    9080.65  285093  314287  215127
    9085.93  284859  314754  217083
    9091.24  286616  317464  220487
    9096.57  287540  319256  223244
    9101.91  286510  318884  224535
    9107.28  288013  321305  227872
    9112.66  288486  322613  230454
    9118.07  290404  325526  234160
    9123.49  290203  326081  236251
    9128.93  289814  326435  238062
    9134.39  291176  328740  241151
    9139.87  291624  330055  243384
    9145.37  292539  331879  245854
    9150.89  292567  332713  247620
    9156.43  293098  334095  249874
    9161.98  294276  336255  252733
    9167.56  294146  336859  254730
    9173.15  294669  338268  257452
    9178.76  295127  339588  260240
    9184.4  295692  341059  263063
    9190.05  296430  342752  265980
    9195.72  296502  343624  268215
    9201.41  296813  344813  270732
    9207.11  297848  346853  274014
    9212.84  297668  347474  276327
    9218.59  298071  348748  279343
    9224.35  298864  350551  282752
    9230.13  299177  351797  285802
    9235.94  299266  352751  288607
    9241.76  298829  353061  290861
    9247.61  300524  355932  295216
    9253.47  301398  357862  298794
    9259.35  301339  358645  301546
    9265.25  300697  358721  303630
    9271.17  302577  361880  308313
    9277.1  303085  363356  311566
    9283.06  303652  364921  314871
    9289.03  304037  366289  317987
    9295.03  304777  368089  321462
    9301.04  305172  369443  324477
    9307.08  305476  370727  327457
    9313.13  305912  372127  330616
    9319.2  306181  373375  333669
    9325.29  306602  374776  336964
    9331.4  307092  376271  340379
    9337.52  307861  378126  344174
    9343.67  308282  379574  347669
    9349.84  308898  381227  351412
    9356.02  309172  382527  354887
    9362.23  309667  384049  358597
    9368.45  309911  385298  362068
    9374.69  310304  386733  365725
    9380.95  310302  387650  368924
    9387.24  310915  389363  372942
    9393.53  311220  390685  376652
    9399.86  312085  392704  381092
    9406.19  312224  393850  384711
    9412.55  312517  395175  388535
    9418.92  313408  397261  393206
    9425.32  313690  398565  397183
    9431.74  314231  400247  400917
    9438.17  314833  402002  405951
    9444.62  315561  403900  410577
    9451.09  315889  405319  414745