File: data/Ni/NiS_rt_01.xdi
# XDI/1.0
# Column.1: energy eV
# Column.2: i0
# Column.3: itrans
# Column.4: irefer
# Beamline.name: SSRL 4-1
# Detector.I0: N2 15cm
# Detector.I1: N2 30cm
# Detector.I2: N2 15cm
# Element.edge: K
# Element.symbol: Ni
# Mono.d_spacing: 3.13550
# Mono.name: Si(111)
# Mono.notes: unfocused, detuned 25%,counter clockwise
# Sample.formula: NiS
# Sample.name: NiS   nickel sulfide
# Sample.prep: powder, mixed 1:150 with B(OH)3 by wt
# Sample.reference: none
# Sample.temperature: room temperature
# Scan.start_time: 1997-01-17 13:11:19
# ///
#    Note: mono d_spacing is nominal!
#     exafs to K17
#     507  E XMU XMUR I0
#-------------
#   energy   i0   itrans  irefer
    8110  235472  111448  406519
    8120  235480  112342  410268
    8130  234917  112977  413331
    8140  234901  113879  416804
    8150  234244  114484  419698
    8160  234204  115377  422932
    8170  233673  116057  425983
    8180  233369  116810  429017
    8190  232898  117514  431770
    8200  232196  118091  434502
    8210  232058  118958  437509
    8220  231616  119657  440335
    8230  231055  120306  443101
    8240  230817  121089  445954
    8250  230751  122003  448975
    8260  229797  122435  451438
    8270  229467  123175  454146
    8280  227948  123309  456597
    8290  227818  124086  458881
    8300  226015  123877  462577
    8310  227593  125719  463810
    8310.5  227935  125946  464604
    8311  227874  125955  465115
    8311.5  227820  125964  465409
    8312  227373  125771  465593
    8312.5  227622  125939  466002
    8313  227021  125638  466161
    8313.5  227182  125764  466538
    8314  226964  125673  466766
    8314.5  226752  125596  467073
    8315  226741  125628  467386
    8315.5  226867  125729  467717
    8316  226837  125754  467780
    8316.5  227247  126015  467917
    8317  227017  125918  468072
    8317.5  227008  125954  468142
    8318  227075  126018  468297
    8318.5  226921  125956  468329
    8319  227015  126039  468405
    8319.5  226631  125855  468260
    8320  226591  125862  468282
    8320.5  225882  125475  467791
    8321  225379  125214  467317
    8321.5  224395  124690  466651
    8322  223218  124058  465921
    8322.5  222108  123487  465346
    8323  220652  122738  464653
    8323.5  219531  122165  464144
    8324  218027  121366  463922
    8324.5  217127  120867  463550
    8325  216915  120718  463254
    8325.5  217162  120782  462910
    8326  217547  120921  462699
    8326.5  218696  121463  462720
    8327  220243  122260  462703
    8327.5  221657  122988  462675
    8328  223228  123825  461989
    8328.5  224309  124393  460522
    8329  225837  125173  458558
    8329.5  226672  125537  455962
    8330  227083  125537  451561
    8330.5  227422  125425  445325
    8331  227605  125050  433170
    8331.5  227554  124467  414906
    8332  227189  123700  390372
    8332.5  227303  123119  359891
    8333  226917  122289  329910
    8333.5  227035  121520  294989
    8334  226543  120347  263619
    8334.5  226452  119229  235981
    8335  226421  117972  213623
    8335.5  226119  116456  196378
    8336  226318  114663  180502
    8336.5  225861  112553  168373
    8337  225695  110302  157207
    8337.5  225619  108287  148124
    8338  225602  106356  139577
    8338.5  225365  104340  130732
    8339  225253  102741  123203
    8339.5  225035  101060  115047
    8340  225585  100041  108644
    8340.5  225218  98583.6  101417
    8341  225035  97305.6  94627.1
    8341.5  225338  96442.6  88793.1
    8342  225191  95422.6  82381.1
    8342.5  225197  94716.6  76944.1
    8343  225330  94109.6  70770.1
    8343.5  225676  93745.6  65161.1
    8344  225416  93216.6  59299.1
    8344.5  225499  92910.6  53693.1
    8345  225966  92826.6  49025.1
    8345.5  225885  92498.6  43859.1
    8346  225966  92250.6  39665.1
    8346.5  225845  91876.6  35664.1
    8347  225929  91585.6  32476.1
    8347.5  225867  91224.6  29797.1
    8348  225966  90910.6  27458.1
    8348.5  225903  90588.6  25899.1
    8349  225714  90208.6  24659.1
    8349.5  225381  89813.6  23916.1
    8350  225465  89584.6  23495.1
    8350.5  225461  89312.6  23297.1
    8351  225142  88953.6  23257.1
    8351.5  225469  88831.6  23409.1
    8352  225366  88593.6  23533.1
    8352.5  225167  88293.6  23670.1
    8353  225055  88031.6  23753.1
    8353.5  225195  87879.6  23764.1
    8354  225111  87637.6  23606.1
    8354.5  224880  87378.6  23329.1
    8355  225064  87267.6  22924.1
    8355.5  224910  87080.6  22419.1
    8356  224888  86950.6  21845.1
    8356.5  224716  86821.6  21282.1
    8357  224791  86808.6  20821.1
    8357.5  224977  86862.6  20416.1
    8358  224674  86766.6  20144.1
    8358.5  224391  86684.6  20013.1
    8359  224947  86944.6  20100.1
    8359.5  224710  86924.6  20228.1
    8360  224687  87000.6  20485.1
    8360.5  225086  87255.6  20815.1
    8361  224518  87166.6  21108.1
    8361.5  224994  87472.6  21482.1
    8362  224922  87594.6  21838.1
    8362.5  224849  87736.6  22226.1
    8363  224707  87845.6  22581.1
    8363.5  224736  88019.6  23006.1
    8364  224609  88106.6  23372.1
    8364.5  224630  88273.6  23825.1
    8365  224698  88437.6  24247.1
    8365.5  224532  88490.6  24627.1
    8366  224716  88665.6  25023.1
    8366.5  224656  88721.6  25303.1
    8367  224517  88759.6  25567.1
    8367.5  224505  88813.6  25769.1
    8368  224745  88977.6  25971.1
    8368.5  224510  88932.6  26066.1
    8369  224712  89065.6  26176.1
    8369.5  224571  89079.6  26217.1
    8370  224532  89111.6  26229.1
    8370.71  224453  89186.6  26163.1
    8371.43  224711  89406.5  26052.1
    8372.16  224635  89532.4  25749.1
    8372.91  224864  89781.2  25383.1
    8373.66  224788  89929  24893
    8374.43  224983  90212.7  24291
    8375.21  225014  90426.4  23643
    8376  225249  90735  22993.9
    8376.81  225631  91118.6  22260.9
    8377.63  225926  91467.1  21548.8
    8378.46  225956  91691.5  20839.8
    8379.3  226299  92049  20169.7
    8380.16  226908  92507.3  19653.7
    8381.03  227317  92851.7  19275.6
    8381.91  227450  93081.9  19019.5
    8382.8  227898  93427.1  19008.5
    8383.7  228521  93805.3  19223.4
    8384.62  228906  94071.4  19625.3
    8385.56  229311  94310.5  20225.2
    8386.5  230028  94634.5  21072.1
    8387.45  230689  94916.5  22024
    8388.42  231028  95019.4  22978.9
    8389.39  231944  95321.3  24047.8
    8390.39  232194  95296.1  24998.7
    8391.39  232855  95416.8  25957.6
    8392.4  233909  95678.5  26839.4
    8393.43  234556  95777.2  27531.3
    8394.47  235217  95858.8  28085.2
    8395.52  236392  96139.4  28507
    8396.58  236829  96131.9  28673.9
    8397.66  237917  96400.4  28805.7
    8398.75  238480  96447.8  28843.6
    8399.85  239639  96755.1  29004.4
    8400.97  240586  96988.4  29209.2
    8402.09  241472  97223.7  29449.1
    8403.23  242463  97527.9  29673.9
    8404.38  243726  97960.1  29841.7
    8405.55  244346  98157.2  29792.5
    8406.72  245737  98705.2  29691.3
    8407.91  246846  99158.2  29460.1
    8409.11  248412  99829.2  29266.9
    8410.32  249259  100247  29035.7
    8411.55  250372  100787  28872.5
    8412.79  251939  101545  28757.3
    8414.03  253058  102123  28481.1
    8415.3  254568  102861  28152.9
    8416.57  255624  103447  27696.6
    8417.85  256694  104063  27240.4
    8419.16  258455  105001  26902.2
    8420.46  260006  105883  26540.9
    8421.79  261449  106736  26163.7
    8423.12  262616  107506  25707.4
    8424.47  264379  108521  25252.1
    8425.83  265711  109377  24688.9
    8427.2  267613  110483  24211.6
    8428.59  268808  111290  23735.3
    8429.98  270989  112506  23518.1
    8431.4  272136  113291  23425.8
    8432.82  273715  114244  23657.5
    8434.25  275674  115338  24196.2
    8435.7  277274  116274  24997.9
    8437.16  279394  117389  26045.6
    8438.62  280854  118229  27216.3
    8440.11  282748  119250  28523.9
    8441.61  284351  120157  29881.6
    8443.11  286549  121334  31413.3
    8444.64  288676  122490  32865
    8446.17  290732  123620  34138.6
    8447.71  292841  124739  35317.3
    8449.26  294585  125697  36550
    8450.83  296708  126769  38137.6
    8452.42  298778  127764  39940.3
    8454.01  300886  128714  41850.9
    8455.62  302719  129511  43712.5
    8457.24  305283  130585  45309.2
    8458.86  307431  131463  46305.8
    8460.51  309156  132145  46675.4
    8462.16  311336  133016  46566
    8463.83  313234  133751  45966.6
    8465.52  315443  134598  45033.2
    8467.21  318028  135606  44038.8
    8468.91  320410  136535  42959.4
    8470.62  322819  137482  41959
    8472.35  325665  138665  41342.6
    8474.09  327210  139339  40935.2
    8475.85  330146  140627  41160.8
    8477.61  332472  141702  41697.3
    8479.4  334895  142854  42424.9
    8481.19  337422  144069  43034.5
    8482.99  339825  145281  43160
    8484.8  342390  146583  42542.6
    8486.63  344884  147884  41088.1
    8488.48  347502  149267  39208.7
    8490.33  350235  150721  37290.2
    8492.19  352606  152032  35825.7
    8494.07  355472  153593  34936.3
    8495.95  358149  155092  34585.8
    8497.86  361168  156778  34625.3
    8499.77  363650  158264  34882.8
    8501.7  366695  160020  35489.3
    8503.63  369266  161596  36439.8
    8505.59  372082  163309  37951.3
    8507.55  374990  165098  40119.8
    8509.52  377873  166897  42852.3
    8511.51  380901  168747  46324.8
    8513.51  383868  170553  50419.3
    8515.53  386650  172233  55076.7
    8517.55  389375  173859  60220.2
    8519.58  393210  175906  65233.6
    8521.64  395342  177183  69183.1
    8523.7  398619  178947  71829.5
    8525.77  401454  180483  72631
    8527.86  405162  182413  71954.4
    8529.95  408147  184008  69935.9
    8532.07  411089  185583  67430.3
    8534.19  414390  187297  64990.7
    8536.33  417802  189067  62912.1
    8538.47  420878  190664  61316.6
    8540.64  424320  192415  60379
    8542.8  427635  194086  60052.4
    8544.99  430969  195717  60369.8
    8547.19  434153  197215  61116.2
    8549.4  437620  198858  62154.6
    8551.62  440774  200354  63279
    8553.85  444239  202008  64548.4
    8556.1  447830  203783  66041.7
    8558.36  451167  205470  67753.1
    8560.63  454463  207192  69495.5
    8562.91  458160  209153  70851.8
    8565.21  462122  211274  71223.2
    8567.51  464883  212914  70209.5
    8569.83  468457  214964  68468.9
    8572.16  472432  217227  66621.3
    8574.51  475900  219300  65099.6
    8576.87  479510  221495  64173.9
    8579.24  483182  223736  63763.3
    8581.62  486080  225644  63770.6
    8584.01  490516  228285  64580.9
    8586.42  494467  230719  66021.2
    8588.83  498142  233024  68259.5
    8591.27  501009  234946  71223.8
    8593.71  505661  237704  75236.1
    8596.17  509266  239955  79625.4
    8598.63  512819  242211  84182.7
    8601.11  516643  244601  88597.9
    8603.6  520647  247053  92476.3
    8606.11  524379  249369  95517.5
    8608.63  528928  252057  97802.8
    8611.16  532452  254259  99075.1
    8613.7  535986  256454  99877.3
    8616.25  540070  258909  100758
    8618.82  542562  260584  101471
    8621.4  543751  261640  102012
    8623.98  550239  265274  103573
    8626.59  552723  266940  104418
    8629.21  557323  269619  105510
    8631.83  565993  274276  107071
    8634.47  569438  276405  107227
    8637.12  573289  278709  107157
    8639.79  577680  281292  107068
    8642.47  581964  283812  107017
    8645.16  586344  286383  107164
    8647.86  590413  288800  107481
    8650.57  594584  291290  108009
    8653.3  598778  293849  108620
    8656.03  603000  296386  109172
    8658.78  607028  298892  109574
    8661.55  611167  301469  109848
    8664.32  615878  304324  110024
    8667.11  620441  307157  110199
    8669.91  625207  310113  110814
    8672.73  629882  313076  112166
    8675.55  633508  315516  114125
    8678.39  638576  318724  117064
    8681.24  643083  321660  120443
    8684.1  647414  324552  124260
    8686.97  650434  326853  127987
    8689.85  655691  330278  131954
    8692.76  660865  333730  135303
    8695.67  665166  336778  137586
    8698.59  670659  340444  139390
    8701.52  674992  343517  140684
    8704.47  680272  347062  142518
    8707.43  684439  350011  144973
    8710.4  688770  352993  148515
    8713.39  694035  356453  153035
    8716.38  698245  359370  157209
    8719.4  702763  362431  160402
    8722.42  708179  365936  162639
    8725.45  713091  369256  164363
    8728.5  717218  372145  165981
    8731.55  722520  375653  167861
    8734.63  727046  378748  169314
    8737.7  732276  382256  170776
    8740.81  737120  385537  172025
    8743.91  741966  388872  173169
    8747.03  747034  392297  174281
    8750.16  751413  395400  175228
    8753.31  755395  398337  176077
    8756.46  758726  400929  176776
    8759.64  762189  403622  177594
    8762.82  766573  406849  178767
    8766.01  770654  409891  179906
    8769.22  775346  413274  181224
    8772.43  779148  416186  182438
    8775.66  784230  419823  184261
    8778.91  788493  423027  186322
    8782.16  792521  426139  188911
    8785.43  797525  429772  192351
    8788.71  802116  433193  196429
    8792  806523  436589  200964
    8795.31  811492  440267  205600
    8798.62  816080  443772  209730
    8801.95  821859  447912  213582
    8805.29  826256  451375  216486
    8808.65  831251  455149  219042
    8812.01  836067  458834  221326
    8815.39  840830  462519  223668
    8818.78  844900  465883  226072
    8822.19  850289  469966  229237
    8825.6  852217  472139  231987
    8829.03  843298  468279  232402
    8832.47  865313  481633  241472
    8835.92  869952  485466  245798
    8839.38  860016  480712  245207
    8842.86  884639  495840  254383
    8846.35  890321  500230  258223
    8849.86  894992  504017  261866
    8853.37  900201  508116  265691
    8856.89  904787  511898  269073
    8860.43  910327  516172  272416
    8863.99  915317  520186  275225
    8867.54  921508  524895  277999
    8871.12  925569  528428  279834
    8874.71  932223  533413  282320
    8878.31  936896  537306  284037
    8881.92  941583  541232  285579
    8885.55  946968  545585  287172
    8889.18  952290  549941  288863
    8892.83  957915  554508  291054
    8896.49  964038  559389  294071
    8900.17  968534  563351  297567
    8903.85  973789  567738  302345
    8907.55  978514  571879  307942
    8911.26  984040  576464  314147
    8914.98  990495  581629  320448
    8918.72  995215  585843  325842
    8922.47  1.00159e+06  591037  331287
    8926.23  1.00683e+06  595548  336018
    8930  1.01157e+06  599782  340490
    8933.78  1.01626e+06  604074  344849
    8937.58  1.01976e+06  607593  348585
    8941.39  1.0254e+06  612435  352982
    8945.21  1.03237e+06  618068  357926
    8949.05  1.03857e+06  623246  362826
    8952.89  1.04483e+06  628514  367936
    8956.75  1.04932e+06  632751  372453
    8960.62  1.05491e+06  637628  377409
    8964.51  1.06146e+06  643121  382929
    8968.4  1.06688e+06  647989  388426
    8972.31  1.0719e+06  652639  393830
    8976.22  1.07725e+06  657484  399079
    8980.16  1.08435e+06  663352  404837
    8984.1  1.08818e+06  667323  409241
    8988.06  1.09315e+06  672007  413933
    8992.03  1.09945e+06  677512  418895
    8996.01  1.1045e+06  682237  423345
    9000  1.11044e+06  687607  428211
    9004.01  1.11555e+06  692448  432760
    9008.02  1.12225e+06  698297  437780
    9012.06  1.1273e+06  703137  442009
    9016.1  1.13367e+06  708816  446685
    9020.16  1.13829e+06  713486  450915
    9024.23  1.14447e+06  719105  456133
    9028.3  1.14975e+06  724213  461326
    9032.4  1.15395e+06  728691  466401
    9036.5  1.16076e+06  734784  472751
    9040.61  1.1658e+06  739796  478424
    9044.75  1.17232e+06  745779  484866
    9048.89  1.1773e+06  750768  490938
    9053.05  1.18341e+06  756544  497860
    9057.2  1.18751e+06  761035  504007
    9061.38  1.19234e+06  766028  510508
    9065.58  1.1974e+06  771401  517149
    9069.78  1.20273e+06  776573  523583
    9073.99  1.20908e+06  782634  530494
    9078.22  1.21212e+06  786581  536173
    9082.46  1.21868e+06  792873  543640
    9086.72  1.21892e+06  795085  548494
    9090.98  1.22847e+06  803232  557251
    9095.25  1.23955e+06  812512  566759
    9099.55  1.24377e+06  817342  573248
    9103.84  1.23787e+06  815352  575113
    9108.16  1.25625e+06  829623  588548
    9112.49  1.26013e+06  834246  595289
    9116.83  1.2699e+06  842841  604793
    9121.18  1.27403e+06  847741  611877
    9125.54  1.27742e+06  852151  618447
    9129.91  1.28334e+06  858239  626065
    9134.3  1.28959e+06  864605  633675
    9138.7  1.29691e+06  871722  641675
    9143.11  1.30216e+06  877508  648358
    9147.54  1.30767e+06  883493  655169
    9151.98  1.31425e+06  890235  662658
    9156.43  1.32015e+06  896537  670017
    9160.89  1.32593e+06  902708  677440
    9165.36  1.33042e+06  908133  684506
    9169.84  1.33785e+06  915527  693500
    9174.34  1.3435e+06  921703  701893
    9178.86  1.34814e+06  927274  710063
    9183.38  1.3547e+06  934124  719108
    9187.92  1.35882e+06  939355  726741
    9192.46  1.36527e+06  946269  735538
    9197.02  1.3697e+06  951747  743267
    9201.59  1.37535e+06  958127  751811
    9206.18  1.3797e+06  963567  759758
    9210.77  1.386e+06  970430  769191
    9215.39  1.3916e+06  976849  778593
    9220  1.39794e+06  983782  788702
    9224.64  1.4027e+06  989710  797998
    9229.28  1.40968e+06  997151  808682
    9233.94  1.41491e+06  1.00341e+06  818391
    9238.61  1.41824e+06  1.00824e+06  827004
    9243.3  1.41697e+06  1.0101e+06  833046
    9247.99  1.43005e+06  1.02189e+06  847355
    9252.7  1.43726e+06  1.02971e+06  858588
    9257.42  1.44162e+06  1.03551e+06  868132
    9262.15  1.4389e+06  1.03623e+06  873421
    9266.89  1.45323e+06  1.049e+06  888900
    9271.65  1.46195e+06  1.05804e+06  901241
    9276.42  1.46727e+06  1.06461e+06  911551
    9281.2  1.47286e+06  1.07139e+06  922001
    9286  1.47945e+06  1.07889e+06  933135
    9290.8  1.48386e+06  1.08494e+06  942909
    9295.62  1.49287e+06  1.09421e+06  955513
    9300.45  1.49669e+06  1.09987e+06  964887
    9305.29  1.50249e+06  1.10696e+06  975425
    9310.15  1.50749e+06  1.11344e+06  985654
    9315.01  1.51313e+06  1.12048e+06  996630
    9319.9  1.51904e+06  1.12777e+06  1.00785e+06
    9324.78  1.52598e+06  1.13571e+06  1.01984e+06
    9329.69  1.53025e+06  1.14185e+06  1.03034e+06
    9334.61  1.53476e+06  1.14821e+06  1.04136e+06
    9339.54  1.53996e+06  1.15496e+06  1.05268e+06
    9344.48  1.54479e+06  1.16158e+06  1.06405e+06
    9349.43  1.55135e+06  1.16952e+06  1.07681e+06
    9354.4  1.55748e+06  1.17714e+06  1.08941e+06
    9359.38  1.56278e+06  1.1842e+06  1.10164e+06
    9364.37  1.56778e+06  1.19103e+06  1.11376e+06
    9369.37  1.5729e+06  1.19798e+06  1.12604e+06
    9374.38  1.57775e+06  1.20481e+06  1.13825e+06
    9379.41  1.58405e+06  1.21265e+06  1.15141e+06
    9384.46  1.58808e+06  1.21887e+06  1.16327e+06
    9389.5  1.59411e+06  1.22658e+06  1.17677e+06
    9394.57  1.59968e+06  1.23397e+06  1.19008e+06
    9399.65  1.60572e+06  1.24185e+06  1.20403e+06
    9404.73  1.60953e+06  1.248e+06  1.21635e+06
    9409.83  1.61577e+06  1.25602e+06  1.23056e+06
    9414.95  1.62184e+06  1.264e+06  1.24508e+06
    9420.08  1.62656e+06  1.27092e+06  1.25866e+06
    9425.21  1.63121e+06  1.2778e+06  1.27231e+06
    9430.37  1.6353e+06  1.28332e+06  1.28664e+06
    9435.53  1.64089e+06  1.29204e+06  1.30037e+06
    9440.7  1.64654e+06  1.29984e+06  1.31523e+06
    9445.89  1.6507e+06  1.30643e+06  1.32901e+06
    9451.09  1.6556e+06  1.31372e+06  1.34352e+06