File: data/Ni/NiS_rt_03.xdi
# XDI/1.0
# Column.1: energy eV
# Column.2: i0
# Column.3: itrans
# Column.4: irefer
# Beamline.name: SSRL 4-1
# Detector.I0: N2 15cm
# Detector.I1: N2 30cm
# Detector.I2: N2 15cm
# Element.edge: K
# Element.symbol: Ni
# Mono.d_spacing: 3.13550
# Mono.name: Si(111)
# Mono.notes: unfocused, detuned 25%,counter clockwise
# Sample.formula: NiS
# Sample.name: NiS   nickel sulfide
# Sample.prep: powder, mixed 1:150 with B(OH)3 by wt
# Sample.reference: none
# Sample.temperature: room temperature
# Scan.start_time: 1997-01-17 13:11:19
# ///
#    Note: mono d_spacing is nominal!
#     exafs to K17
#     507  E XMU XMUR I0
#-------------
#   energy   i0   itrans  irefer
    8110  227188  105610  387011
    8120  226911  106333  391015
    8130  226753  107133  394935
    8140  226592  107928  398821
    8150  226242  108656  402445
    8160  225901  109375  406248
    8170  225622  110111  409706
    8180  225112  110765  413210
    8190  224718  111459  416569
    8200  224167  112085  419844
    8210  223783  112777  423070
    8220  223538  113534  426320
    8230  223260  114294  429516
    8240  222917  115017  432566
    8250  222304  115596  435490
    8260  222034  116361  438497
    8270  221438  116919  441222
    8280  219929  117034  443691
    8290  219992  117878  446282
    8300  218669  117913  449946
    8310  219951  119524  451636
    8310.5  219795  119486  452133
    8311  219721  119503  452557
    8311.5  219818  119583  453019
    8312  219623  119508  453315
    8312.5  219404  119419  453510
    8313  219468  119486  453928
    8313.5  219192  119392  454237
    8314  219011  119322  454486
    8314.5  219061  119386  454953
    8315  218845  119302  455126
    8315.5  218993  119407  455378
    8316  219099  119499  455456
    8316.5  219583  119802  455760
    8317  219296  119681  455904
    8317.5  219232  119673  456076
    8318  219291  119743  456216
    8318.5  219249  119744  456300
    8319  218937  119607  456225
    8319.5  218703  119506  456101
    8320  218787  119557  455992
    8320.5  217976  119130  455476
    8321  217440  118844  454964
    8321.5  216473  118334  454187
    8322  215136  117643  453292
    8322.5  214135  117148  452579
    8323  212623  116391  451640
    8323.5  211513  115828  451152
    8324  210297  115191  450387
    8324.5  209735  114874  449711
    8325  209456  114672  449190
    8325.5  209910  114842  448882
    8326  210441  115055  448624
    8326.5  211917  115778  448978
    8327  213232  116431  449169
    8327.5  214711  117195  448847
    8328  216173  117959  448055
    8328.5  217612  118712  446733
    8329  218598  119176  444236
    8329.5  219224  119386  440379
    8330  219659  119355  433874
    8330.5  219618  118985  424233
    8331  219817  118581  407814
    8331.5  219574  117919  385545
    8332  219760  117463  360101
    8332.5  219325  116593  328247
    8333  219343  115981  299399
    8333.5  219132  115008  266054
    8334  219073  114065  238366
    8334.5  218768  112811  213864
    8335  218706  111509  194541
    8335.5  218411  109906  179500
    8336  218213  107880  165396
    8336.5  218193  106018  155129
    8337  218122  103930  145260
    8337.5  217907  102007  136987
    8338  217807  100209  129092
    8338.5  217630  98410.6  120873
    8339  217587  96972.6  113825
    8339.5  217575  95526.6  106346
    8340  217300  94241.6  99953.1
    8340.5  217596  93194.6  93571.1
    8341  217756  92190.6  87498.1
    8341.5  217543  91202.6  81774.1
    8342  217543  90351.6  75747.1
    8342.5  217501  89714.6  70524.1
    8343  217935  89310.6  64770.1
    8343.5  217955  88898.6  59378.1
    8344  217902  88521.6  53959.1
    8344.5  217870  88213.6  48699.1
    8345  218051  88028.6  44324.1
    8345.5  217997  87710.6  39630.1
    8346  218095  87476.6  35866.1
    8346.5  218381  87275.6  32399.1
    8347  218024  86824.6  29534.1
    8347.5  218409  86658.6  27314.1
    8348  218294  86285.6  25330.1
    8348.5  217990  85893.6  24038.1
    8349  217751  85521.6  23063.1
    8349.5  217916  85344.6  22553.1
    8350  217795  85049.6  22254.1
    8350.5  217755  84785.6  22167.1
    8351  217488  84465.6  22190.1
    8351.5  217536  84253.6  22340.1
    8352  217453  84038.6  22472.1
    8352.5  217468  83826.6  22601.1
    8353  217100  83491.6  22604.1
    8353.5  217143  83314.6  22552.1
    8354  217298  83184.6  22357.1
    8354.5  217493  83110.6  22075.1
    8355  217183  82832.6  21567.1
    8355.5  217082  82674.6  21059.1
    8356  217175  82625.6  20519.1
    8356.5  217557  82712.6  20046.1
    8357  216989  82465.6  19584.1
    8357.5  217206  82547.6  19279.1
    8358  217423  82653.6  19148.1
    8358.5  217255  82639.6  19108.1
    8359  216946  82584.6  19183.1
    8359.5  217211  82746.6  19405.1
    8360  217016  82786.6  19671.1
    8360.5  217339  83004.6  19996.1
    8361  217126  83052.6  20315.1
    8361.5  217180  83196.6  20634.1
    8362  217084  83303.6  20973.1
    8362.5  216987  83428.6  21341.1
    8363  217043  83599.6  21711.1
    8363.5  217271  83853.6  22148.1
    8364  217132  83929.6  22502.1
    8364.5  217004  84020.6  22910.1
    8365  217097  84163.6  23305.1
    8365.5  216927  84209.6  23648.1
    8366  217012  84332.6  23992.1
    8366.5  217465  84584.6  24298.1
    8367  217243  84566.6  24506.1
    8367.5  216967  84522.6  24642.1
    8368  217038  84607.6  24794.1
    8368.5  216886  84601.6  24879.1
    8369  216980  84686.6  24955.1
    8369.5  216735  84666.6  24962.1
    8370  216855  84767.6  24974.1
    8370.71  216761  84838.6  24872.1
    8371.43  216712  84935.5  24690.1
    8372.16  216877  85141.4  24393.1
    8372.91  217000  85354.2  23989.1
    8373.66  217114  85575  23516
    8374.43  217032  85740.7  22888
    8375.21  217480  86113.4  22306
    8376  217641  86383  21665.9
    8376.81  217806  86674.6  20953.9
    8377.63  217928  86930.1  20267.9
    8378.46  218120  87210.5  19621.8
    8379.3  218658  87648  19033.7
    8380.16  219067  87992.3  18566.7
    8381.03  219204  88213.7  18225.6
    8381.91  219485  88495.9  18059.5
    8382.8  220183  88919.1  18135.5
    8383.7  220458  89148.3  18366.4
    8384.62  220864  89402.4  18812.3
    8385.56  221072  89539.5  19415.2
    8386.5  222059  89956.5  20287.1
    8387.45  222477  90119.5  21196
    8388.42  223069  90311.4  22128.9
    8389.39  223732  90507.3  23108.8
    8390.39  224109  90541.1  24017.7
    8391.39  224737  90650.8  24899.6
    8392.4  225620  90840.6  25690.4
    8393.43  226132  90876.2  26303.3
    8394.47  226816  90978.8  26792.1
    8395.52  227524  91091.4  27097
    8396.58  228525  91302.9  27290.9
    8397.66  229318  91455.4  27371.7
    8398.75  229991  91567.8  27429.6
    8399.85  230906  91782.1  27576.4
    8400.97  231936  92059.4  27798.2
    8402.09  232871  92313.7  28036.1
    8403.23  233858  92619.9  28236.9
    8404.38  234582  92849.1  28306.7
    8405.55  236043  93388.2  28332.5
    8406.72  236980  93746.2  28162.3
    8407.91  238119  94212.2  27941.1
    8409.11  239215  94697.2  27711.9
    8410.32  240687  95354.1  27590.7
    8411.55  241591  95815  27416.5
    8412.79  242453  96268.8  27212.3
    8414.03  243788  96924.5  26966.1
    8415.3  244946  97524.2  26601.9
    8416.57  246463  98273.9  26230.6
    8417.85  248072  99106.5  25872.4
    8419.16  249478  99870  25507.1
    8420.46  250646  100575  25136.9
    8421.79  251788  101306  24755.6
    8423.12  253308  102197  24347.4
    8424.47  254594  102989  23863.1
    8425.83  256248  103958  23367.9
    8427.2  257803  104895  22891.6
    8428.59  259202  105757  22484.3
    8429.98  260524  106604  22242.1
    8431.4  262340  107645  22270.8
    8432.82  263851  108525  22531.5
    8434.25  265339  109402  23069.2
    8435.7  267183  110412  23897.9
    8437.16  268925  111351  24897.6
    8438.62  270785  112329  26073.3
    8440.11  272557  113281  27338.9
    8441.61  273858  114053  28620.6
    8443.11  275774  115088  30045.3
    8444.64  277728  116149  31388
    8446.17  279705  117204  32573.6
    8447.71  281319  118114  33644.3
    8449.26  283277  119120  34894
    8450.83  284982  119985  36406.6
    8452.42  287236  121029  38177.3
    8454.01  288946  121802  39954.9
    8455.62  291177  122748  41736.5
    8457.24  292954  123468  43058.2
    8458.86  295131  124347  43920.8
    8460.51  296938  125056  44187.4
    8462.16  299491  126075  44067
    8463.83  301616  126894  43481.6
    8465.52  303927  127790  42595.2
    8467.21  305638  128409  41515.9
    8468.91  308176  129411  40549.4
    8470.62  310224  130206  39603
    8472.35  312286  131059  38986.6
    8474.09  314639  132049  38784.2
    8475.85  317017  133105  39014.7
    8477.61  319616  134272  39615.3
    8479.4  321679  135267  40275.9
    8481.19  323932  136358  40791.4
    8482.99  326360  137562  40820
    8484.8  329245  138968  40179.6
    8486.63  331320  140083  38675.1
    8488.48  333993  141466  36895.6
    8490.33  336252  142687  35093.2
    8492.19  338918  144107  33822.7
    8494.07  341742  145623  33068.2
    8495.95  344144  146967  32764.8
    8497.86  347035  148560  32832.3
    8499.77  349560  150031  33118.8
    8501.7  352230  151591  33710.3
    8503.63  354466  152984  34635.8
    8505.59  357486  154743  36157.3
    8507.55  360387  156486  38292.8
    8509.52  362617  157969  40886.3
    8511.51  365821  159850  44279.8
    8513.51  368157  161329  48162.2
    8515.53  371689  163300  52762.7
    8517.55  374719  165009  57693.2
    8519.58  377319  166479  62220.7
    8521.64  379854  167907  65907.1
    8523.7  382939  169547  68243.5
    8525.77  385767  171063  68836
    8527.86  388587  172552  67895.4
    8529.95  391729  174186  65954.9
    8532.07  395108  175910  63663.3
    8534.19  397553  177224  61270.8
    8536.33  400808  178896  59359.2
    8538.47  403999  180524  57936.6
    8540.64  406779  181934  57025
    8542.8  409938  183501  56783.4
    8544.99  413403  185156  57175.8
    8547.19  416122  186452  57875.2
    8549.4  419385  187967  58862.6
    8551.62  423206  189737  60046
    8553.85  425987  191070  61187.3
    8556.1  429272  192670  62604.7
    8558.36  432720  194381  64279.1
    8560.63  436069  196135  65945.5
    8562.91  439559  197968  67152.8
    8565.21  442938  199780  67328.2
    8567.51  446446  201733  66432.5
    8569.83  449864  203661  64727.9
    8572.16  453472  205744  62986.3
    8574.51  456924  207782  61607.6
    8576.87  460198  209774  60741.9
    8579.24  463866  211974  60420.2
    8581.62  467400  214134  60581.6
    8584.01  471287  216470  61350.9
    8586.42  475139  218805  62786.2
    8588.83  478564  220954  64969.5
    8591.27  482002  223100  67949.8
    8593.71  485797  225431  71707.1
    8596.17  490053  227932  76011.4
    8598.63  493467  230069  80329.7
    8601.11  497453  232471  84537
    8603.6  501217  234771  88151.3
    8606.11  504869  236992  91002.5
    8608.63  508623  239266  93003.8
    8611.16  512747  241700  94303.1
    8613.7  516207  243809  95067.3
    8616.25  520531  246328  95999.6
    8618.82  522912  247927  96678.8
    8621.4  524514  249135  97282.1
    8623.98  531765  253085  98986.3
    8626.59  532799  254030  99515.5
    8629.21  538187  257034  100719
    8631.83  545555  261012  101999
    8634.47  549405  263299  102227
    8637.12  553576  265717  102242
    8639.79  557556  268047  102112
    8642.47  561317  270278  101995
    8645.16  565627  272792  102185
    8647.86  569312  274996  102463
    8650.57  574430  277900  103184
    8653.3  578542  280384  103782
    8656.03  582554  282804  104288
    8658.78  588022  285944  104950
    8661.55  591243  288017  105043
    8664.32  595366  290544  105134
    8667.11  600202  293470  105385
    8669.91  604348  296081  105940
    8672.73  608782  298888  107299
    8675.55  612891  301535  109337
    8678.39  617772  304588  112196
    8681.24  622499  307580  115538
    8684.1  626079  310071  119078
    8686.97  630986  313248  123026
    8689.85  634715  315860  126522
    8692.76  639871  319207  129703
    8695.67  644528  322407  131940
    8698.59  649493  325727  133572
    8701.52  653934  328813  134865
    8704.47  658006  331686  136444
    8707.43  663280  335152  139127
    8710.4  668304  338423  142750
    8713.39  672642  341374  146917
    8716.38  676852  344209  150917
    8719.4  681172  347126  153902
    8722.42  685887  350247  155908
    8725.45  690893  353522  157602
    8728.5  695939  356833  159419
    8731.55  700743  360010  161127
    8734.63  705492  363201  162620
    8737.7  709937  366243  163876
    8740.81  715045  369626  165168
    8743.91  719110  372493  166104
    8747.03  723386  375484  167051
    8750.16  728736  379038  168226
    8753.31  733668  382415  169297
    8756.46  738255  385628  170303
    8759.64  743158  389020  171452
    8762.82  747483  392160  172603
    8766.01  753064  395949  174095
    8769.22  757560  399204  175356
    8772.43  762222  402526  176763
    8775.66  766776  405832  178448
    8778.91  772359  409709  180799
    8782.16  776507  412838  183355
    8785.43  781366  416329  186708
    8788.71  786922  420229  190934
    8792  790644  423202  195210
    8795.31  795021  426536  199576
    8798.62  799913  430142  203687
    8801.95  804724  433728  207184
    8805.29  808557  436833  209868
    8808.65  813461  440490  212339
    8812.01  818023  444065  214555
    8815.39  823226  447942  216996
    8818.78  827875  451584  219553
    8822.19  832269  455088  222427
    8825.6  834367  457294  225194
    8829.03  826184  453898  225799
    8832.47  847946  466969  234710
    8835.92  851130  469946  238453
    8839.38  841200  465252  237775
    8842.86  866838  480811  247150
    8846.35  871607  484610  250647
    8849.86  875378  487884  253992
    8853.37  880165  491709  257598
    8856.89  884929  495487  260923
    8860.43  889789  499362  263994
    8863.99  895489  503740  266965
    8867.54  900334  507594  269245
    8871.12  905591  511726  271414
    8874.71  911100  516003  273528
    8878.31  916478  520263  275452
    8881.92  921055  524090  276913
    8885.55  926319  528311  278475
    8889.18  931584  532604  280174
    8892.83  936759  536882  282244
    8896.49  942534  541461  285181
    8900.17  947301  545523  288732
    8903.85  951944  549504  293297
    8907.55  957742  554165  299115
    8911.26  962600  558384  305000
    8914.98  967819  562777  310731
    8918.72  973545  567523  316273
    8922.47  978243  571649  321056
    8926.23  983934  576407  325857
    8930  989103  580852  330383
    8933.78  993677  585013  334609
    8937.58  998730  589377  338762
    8941.39  1.00269e+06  593170  342509
    8945.21  1.00936e+06  598582  347300
    8949.05  1.01547e+06  603686  352101
    8952.89  1.02113e+06  608490  356876
    8956.75  1.0258e+06  612766  361362
    8960.62  1.03141e+06  617629  366241
    8964.51  1.03754e+06  622808  371535
    8968.4  1.0415e+06  626731  376404
    8972.31  1.0475e+06  631903  382040
    8976.22  1.05303e+06  636802  387289
    8980.16  1.05799e+06  641419  392185
    8984.1  1.06359e+06  646355  397149
    8988.06  1.06908e+06  651243  401893
    8992.03  1.07515e+06  656576  406681
    8996.01  1.07893e+06  660509  410575
    9000  1.08487e+06  665791  415355
    9004.01  1.08984e+06  670479  419753
    9008.02  1.09657e+06  676272  424741
    9012.06  1.10148e+06  681001  428812
    9016.1  1.10727e+06  686256  433196
    9020.16  1.11223e+06  691064  437504
    9024.23  1.11769e+06  696181  442355
    9028.3  1.12299e+06  701235  447485
    9032.4  1.12793e+06  706093  452771
    9036.5  1.13455e+06  711988  458949
    9040.61  1.13826e+06  716155  463964
    9044.75  1.1443e+06  721722  470079
    9048.89  1.14884e+06  726419  475906
    9053.05  1.15456e+06  731923  482581
    9057.2  1.16058e+06  737540  489358
    9061.38  1.16436e+06  741798  495319
    9065.58  1.16762e+06  745965  501009
    9069.78  1.172e+06  750456  506919
    9073.99  1.18002e+06  757498  514425
    9078.22  1.18285e+06  761330  519894
    9082.46  1.18773e+06  766413  526443
    9086.72  1.18653e+06  767694  530571
    9090.98  1.19747e+06  776624  539757
    9095.25  1.20724e+06  784963  548531
    9099.55  1.21079e+06  789367  554602
    9103.84  1.2051e+06  787450  556429
    9108.16  1.2219e+06  800599  568954
    9112.49  1.22473e+06  804460  575065
    9116.83  1.23578e+06  813811  585018
    9121.18  1.23843e+06  817640  591155
    9125.54  1.24155e+06  821904  597538
    9129.91  1.24638e+06  827202  604488
    9134.3  1.25512e+06  835129  613200
    9138.7  1.26107e+06  841264  620278
    9143.11  1.26621e+06  846883  626801
    9147.54  1.27234e+06  853132  633704
    9151.98  1.27647e+06  858135  639848
    9156.43  1.28173e+06  863884  646722
    9160.89  1.28589e+06  868812  653333
    9165.36  1.29108e+06  874724  660498
    9169.84  1.2951e+06  879688  667478
    9174.34  1.30134e+06  886193  676012
    9178.86  1.30615e+06  891842  684059
    9183.38  1.31028e+06  896932  691639
    9187.92  1.31657e+06  903612  700218
    9192.46  1.32163e+06  909474  708090
    9197.02  1.32776e+06  916098  716586
    9201.59  1.33145e+06  921017  723830
    9206.18  1.33755e+06  927622  732572
    9210.77  1.34326e+06  933987  741482
    9215.39  1.34859e+06  940094  750473
    9220  1.35719e+06  948560  761506
    9224.64  1.36317e+06  955217  771323
    9229.28  1.36905e+06  961854  781231
    9233.94  1.37689e+06  969836  792203
    9238.61  1.38207e+06  975986  801681
    9243.3  1.37995e+06  977151  807040
    9247.99  1.39732e+06  991897  823698
    9252.7  1.40332e+06  998782  834051
    9257.42  1.40798e+06  1.00476e+06  843539
    9262.15  1.40643e+06  1.00631e+06  849426
    9266.89  1.42044e+06  1.01884e+06  864464
    9271.65  1.42691e+06  1.0262e+06  875341
    9276.42  1.43123e+06  1.03199e+06  884861
    9281.2  1.43806e+06  1.03958e+06  895913
    9286  1.44192e+06  1.04504e+06  905094
    9290.8  1.44782e+06  1.05209e+06  915698
    9295.62  1.45238e+06  1.05812e+06  925321
    9300.45  1.45755e+06  1.06467e+06  935275
    9305.29  1.46531e+06  1.07313e+06  946959
    9310.15  1.46864e+06  1.07832e+06  955922
    9315.01  1.47356e+06  1.08477e+06  966208
    9319.9  1.47902e+06  1.0916e+06  976932
    9324.78  1.48425e+06  1.09831e+06  987658
    9329.69  1.48982e+06  1.1053e+06  998887
    9334.61  1.49495e+06  1.112e+06  1.00992e+06
    9339.54  1.49922e+06  1.11812e+06  1.02051e+06
    9344.48  1.50427e+06  1.12482e+06  1.03183e+06
    9349.43  1.51126e+06  1.13291e+06  1.0447e+06
    9354.4  1.5185e+06  1.14135e+06  1.05791e+06
    9359.38  1.5209e+06  1.14621e+06  1.06794e+06
    9364.37  1.52756e+06  1.15422e+06  1.08101e+06
    9369.37  1.53337e+06  1.16164e+06  1.09358e+06
    9374.38  1.53664e+06  1.16719e+06  1.10443e+06
    9379.41  1.54439e+06  1.17615e+06  1.11849e+06
    9384.46  1.54753e+06  1.18169e+06  1.12959e+06
    9389.5  1.55322e+06  1.18919e+06  1.14271e+06
    9394.57  1.55775e+06  1.19575e+06  1.15506e+06
    9399.65  1.56385e+06  1.20355e+06  1.16882e+06
    9404.73  1.56757e+06  1.20955e+06  1.18087e+06
    9409.83  1.57381e+06  1.21764e+06  1.195e+06
    9414.95  1.57762e+06  1.22379e+06  1.20756e+06
    9420.08  1.58484e+06  1.23261e+06  1.22285e+06
    9425.21  1.58921e+06  1.23917e+06  1.23603e+06
    9430.37  1.59554e+06  1.24748e+06  1.25079e+06
    9435.53  1.60002e+06  1.25424e+06  1.26446e+06
    9440.7  1.60598e+06  1.26217e+06  1.27926e+06
    9445.89  1.60995e+06  1.26868e+06  1.29276e+06
    9451.09  1.61496e+06  1.27597e+06  1.3071e+06