File: data/Ni/NiS_rt_02.xdi
# XDI/1.0
# Column.1: energy eV
# Column.2: i0
# Column.3: itrans
# Column.4: irefer
# Beamline.name: SSRL 4-1
# Detector.I0: N2 15cm
# Detector.I1: N2 30cm
# Detector.I2: N2 15cm
# Element.edge: K
# Element.symbol: Ni
# Mono.d_spacing: 3.13550
# Mono.name: Si(111)
# Mono.notes: unfocused, detuned 25%,counter clockwise
# Sample.formula: NiS
# Sample.name: NiS   nickel sulfide
# Sample.prep: powder, mixed 1:150 with B(OH)3 by wt
# Sample.reference: none
# Sample.temperature: room temperature
# Scan.start_time: 1997-01-17 13:11:19
# ///
#    Note: mono d_spacing is nominal!
#     exafs to K17
#     507  E XMU XMUR I0
#-------------
#   energy   i0   itrans  irefer
    8110  230221  107793  392565
    8120  230546  108819  397115
    8130  229930  109400  400236
    8140  229281  109977  403499
    8150  229287  110874  407419
    8160  228788  111557  410726
    8170  228543  112325  414281
    8180  228400  113154  417711
    8190  227886  113810  420900
    8200  227503  114513  424036
    8210  227214  115274  427267
    8220  226755  115961  430356
    8230  226346  116654  433379
    8240  225977  117377  436421
    8250  225337  117951  439225
    8260  225323  118851  442349
    8270  224638  119398  445086
    8280  223043  119459  447510
    8290  222987  120250  449973
    8300  221623  120278  453703
    8310  223105  122016  455327
    8310.5  223072  122046  455886
    8311  222881  121978  456299
    8311.5  223308  122256  456945
    8312  222932  122089  457066
    8312.5  222308  121776  457178
    8313  222505  121902  457660
    8313.5  222451  121921  458003
    8314  222344  121888  458362
    8314.5  222291  121905  458686
    8315  222348  121971  459035
    8315.5  222632  122160  459408
    8316  222765  122267  459512
    8316.5  222476  122134  459562
    8317  222640  122261  459743
    8317.5  222484  122205  459871
    8318  222625  122320  460083
    8318.5  222417  122227  460085
    8319  222466  122277  460178
    8319.5  222006  122059  460034
    8320  221555  121829  459763
    8320.5  221201  121646  459451
    8321  220846  121465  459008
    8321.5  219727  120869  458175
    8322  218787  120383  457546
    8322.5  217121  119518  456725
    8323  215881  118896  456032
    8323.5  214705  118288  455436
    8324  213613  117717  454974
    8324.5  212911  117323  454521
    8325  212469  117026  454123
    8325.5  212955  117225  453780
    8326  213615  117512  453542
    8326.5  214948  118157  453789
    8327  216190  118778  453947
    8327.5  218121  119778  453802
    8328  219104  120295  452904
    8328.5  220585  121059  451418
    8329  221780  121657  449029
    8329.5  222376  121837  445645
    8330  222754  121778  439991
    8330.5  222949  121521  431117
    8331  223127  121113  415567
    8331.5  223169  120586  394355
    8332  222697  119758  367530
    8332.5  222607  119072  335977
    8333  222518  118382  306862
    8333.5  222447  117486  273017
    8334  222248  116465  244816
    8334.5  221741  115105  219450
    8335  221912  113901  199663
    8335.5  221655  112324  184208
    8336  221481  110285  169649
    8336.5  221327  108335  158937
    8337  221387  106265  148878
    8337.5  220965  104179  140163
    8338  221140  102468  132275
    8338.5  220938  100611  123910
    8339  220981  99189.6  116830
    8339.5  220718  97587.6  108994
    8340  220801  96432.6  102672
    8340.5  220615  95119.6  95850.1
    8341  220804  94107.6  89626.1
    8341.5  220634  93104.6  83813.1
    8342  220889  92341.6  77793.1
    8342.5  221004  91750.6  72557.1
    8343  221187  91221.6  66569.1
    8343.5  221402  90869.6  61157.1
    8344  221004  90333.6  55457.1
    8344.5  221416  90174.6  50206.1
    8345  221247  89852.6  45588.1
    8345.5  221455  89645.6  40830.1
    8346  221350  89322.6  36913.1
    8346.5  221571  89089.6  33298.1
    8347  221644  88788.6  30412.1
    8347.5  221510  88422.6  28020.1
    8348  221329  88012.6  25930.1
    8348.5  221279  87714.6  24610.1
    8349  221290  87430.6  23611.1
    8349.5  221144  87119.6  23028.1
    8350  220749  86709.6  22671.1
    8350.5  220947  86537.6  22593.1
    8351  220924  86296.6  22636.1
    8351.5  220888  86048.6  22767.1
    8352  220819  85830.6  22904.1
    8352.5  220695  85557.6  23023.1
    8353  220620  85328.6  23076.1
    8353.5  220709  85159.6  23028.1
    8354  220563  84906.6  22807.1
    8354.5  220446  84701.6  22494.1
    8355  220587  84599.6  22041.1
    8355.5  220549  84457.6  21537.1
    8356  220547  84365.6  20975.1
    8356.5  220564  84305.6  20447.1
    8357  220464  84238.6  20018.1
    8357.5  220484  84244.6  19679.1
    8358  220238  84176.6  19488.1
    8358.5  220307  84246.6  19464.1
    8359  219942  84171.6  19519.1
    8359.5  220354  84390.6  19745.1
    8360  220109  84400.6  20007.1
    8360.5  220417  84613.6  20337.1
    8361  220261  84682.6  20669.1
    8361.5  220198  84791.6  20985.1
    8362  220072  84891.6  21321.1
    8362.5  220281  85131.6  21723.1
    8363  220183  85237.6  22082.1
    8363.5  220040  85345.6  22486.1
    8364  220055  85497.6  22865.1
    8364.5  220335  85744.6  23322.1
    8365  220065  85763.6  23688.1
    8365.5  220282  85949.6  24083.1
    8366  220090  85971.6  24405.1
    8366.5  220243  86100.6  24686.1
    8367  220341  86225.6  24943.1
    8367.5  220246  86242.6  25113.1
    8368  220006  86202.6  25226.1
    8368.5  220288  86371.6  25370.1
    8369  220034  86326.6  25413.1
    8369.5  220300  86487.6  25479.1
    8370  219890  86390.6  25423.1
    8370.71  220039  86556.6  25357.1
    8371.43  220356  86799.5  25220.1
    8372.16  220474  86993.4  24920.1
    8372.91  220343  87111.2  24482.1
    8373.66  220339  87283  23992
    8374.43  220613  87592.7  23396
    8375.21  220589  87781.4  22746
    8376  220848  88090  22100.9
    8376.81  221102  88422.6  21384.9
    8377.63  221376  88745.1  20697.9
    8378.46  221845  89141.5  20073.8
    8379.3  221954  89403  19428.7
    8380.16  222498  89814.3  18954.7
    8381.03  222441  89959.7  18588.6
    8381.91  222802  90278.9  18414.5
    8382.8  223289  90624.1  18463.5
    8383.7  223677  90891.3  18695.4
    8384.62  224174  91182.4  19147.3
    8385.56  224655  91443.5  19778.2
    8386.5  225360  91761.5  20632.1
    8387.45  225727  91909.5  21550
    8388.42  226297  92094.4  22495.9
    8389.39  226752  92188.3  23477.8
    8390.39  227486  92372.1  24440.7
    8391.39  228284  92554.8  25369.5
    8392.4  228859  92617.5  26152.4
    8393.43  229561  92730.2  26801.3
    8394.47  230652  92981.8  27350.2
    8395.52  231167  93010.4  27646
    8396.58  232193  93243.9  27852.9
    8397.66  232864  93337.4  27917.7
    8398.75  233786  93538.8  28002.6
    8399.85  234411  93638.1  28113.4
    8400.97  235829  94071.5  28382.2
    8402.09  236462  94213.7  28586.1
    8403.23  237486  94528.9  28797.9
    8404.38  238408  94824.1  28895.7
    8405.55  239747  95319.2  28916.5
    8406.72  240419  95577.2  28707.3
    8407.91  241630  96068.2  28491.1
    8409.11  242984  96659.2  28289.9
    8410.32  244229  97237.1  28127.7
    8411.55  245209  97719  27960.5
    8412.79  246311  98275.8  27777.3
    8414.03  247762  98977.5  27545.1
    8415.3  248879  99555.2  27168.9
    8416.57  250065  100189  26736.6
    8417.85  251332  100879  26333.4
    8419.16  252916  101711  25980.2
    8420.46  254299  102525  25630.9
    8421.79  255639  103333  25248.7
    8423.12  256919  104144  24814.4
    8424.47  258771  105170  24381.1
    8425.83  260110  106025  23832.9
    8427.2  261541  106911  23332.6
    8428.59  263420  107996  22966.3
    8429.98  264744  108837  22706
    8431.4  266346  109787  22702.8
    8432.82  267758  110652  22952.5
    8434.25  269774  111754  23532.2
    8435.7  271163  112577  24319.9
    8437.16  272577  113389  25313.6
    8438.62  274740  114524  26539.2
    8440.11  276437  115438  27806
    8441.61  278438  116488  29186.6
    8443.11  280131  117439  30608.3
    8444.64  281885  118426  31961
    8446.17  283629  119391  33131.6
    8447.71  285700  120497  34282.3
    8449.26  287511  121458  35524
    8450.83  289511  122455  37095.6
    8452.42  291690  123463  38883.2
    8454.01  293599  124324  40725.9
    8455.62  295576  125171  42506.5
    8457.24  297137  125814  43824.2
    8458.86  299422  126749  44737.8
    8460.51  302103  127804  45149.4
    8462.16  303999  128568  44940
    8463.83  306321  129465  44367.6
    8465.52  308184  130172  43407.2
    8467.21  310398  131011  42377.8
    8468.91  312584  131853  41323.4
    8470.62  315116  132852  40417
    8472.35  317147  133688  39772.6
    8474.09  319334  134622  39530.2
    8475.85  321889  135747  39769.8
    8477.61  324507  136940  40369.3
    8479.4  326516  137889  41024.9
    8481.19  329367  139236  41631.5
    8482.99  331573  140354  41640
    8484.8  333822  141512  40908.6
    8486.63  336612  142932  39478.1
    8488.48  339325  144337  37670.6
    8490.33  341161  145395  35776.2
    8492.19  344268  147004  34512.7
    8494.07  346786  148402  33694.2
    8495.95  349571  149918  33418.8
    8497.86  352551  151567  33486.3
    8499.77  354790  152933  33734.8
    8501.7  357488  154498  34319.3
    8503.63  360285  156145  35310.8
    8505.59  362724  157687  36790.3
    8507.55  365442  159358  38931.8
    8509.52  368567  161200  41653.3
    8511.51  371619  163055  45087.8
    8513.51  374224  164677  49060.3
    8515.53  377078  166351  53631.7
    8517.55  380281  168143  58670.2
    8519.58  382853  169625  63275.6
    8521.64  385762  171215  67119.1
    8523.7  388832  172867  69519.6
    8525.77  391866  174472  70184
    8527.86  395140  176176  69344.4
    8529.95  398312  177835  67375.9
    8532.07  401284  179390  64963.3
    8534.19  404131  180899  62580.8
    8536.33  407375  182569  60591.2
    8538.47  410493  184167  59110.6
    8540.64  413855  185836  58252
    8542.8  416839  187333  57961.4
    8544.99  420069  188901  58302.8
    8547.19  423168  190367  59050.2
    8549.4  426626  191974  60079.6
    8551.62  429630  193385  61158
    8553.85  433011  194983  62398.4
    8556.1  436763  196805  63888.8
    8558.36  439987  198443  65544.1
    8560.63  443111  200056  67207.5
    8562.91  446500  201863  68436.9
    8565.21  450153  203827  68693.2
    8567.51  453885  205870  67816.6
    8569.83  457476  207910  66106.9
    8572.16  460555  209734  64225.2
    8574.51  464140  211855  62826.6
    8576.87  467588  213934  61943.9
    8579.24  470870  215981  61544.2
    8581.62  474309  218094  61672.6
    8584.01  478102  220400  62416.9
    8586.42  481963  222767  63854.2
    8588.83  485562  225005  66067.5
    8591.27  489205  227254  69100.8
    8593.71  493181  229668  72923.1
    8596.17  497179  232097  77256.4
    8598.63  500417  234163  81604.7
    8601.11  504116  236448  85833.9
    8603.6  507946  238777  89531.3
    8606.11  511742  241075  92474.5
    8608.63  516119  243675  94646.8
    8611.16  519553  245793  95838.1
    8613.7  523494  248133  96700.3
    8616.25  526962  250257  97467.6
    8618.82  529906  252136  98263.8
    8621.4  531156  253182  98800.1
    8623.98  538001  256954  100416
    8626.59  539892  258314  101128
    8629.21  544743  261077  102236
    8631.83  551943  265003  103492
    8634.47  556234  267497  103808
    8637.12  559926  269702  103715
    8639.79  563982  272086  103581
    8642.47  567638  274273  103436
    8645.16  572161  276892  103650
    8647.86  576220  279272  103979
    8650.57  580788  281936  104600
    8653.3  584629  284275  105149
    8656.03  589454  287108  105806
    8658.78  593020  289335  106110
    8661.55  597191  291896  106367
    8664.32  600822  294181  106365
    8667.11  606016  297278  106673
    8669.91  610197  299926  107241
    8672.73  614169  302494  108497
    8675.55  618341  305172  110563
    8678.39  623212  308250  113429
    8681.24  627828  311194  116765
    8684.1  632238  314089  120501
    8686.97  635814  316621  124216
    8689.85  640242  319611  127895
    8692.76  645186  322877  131066
    8695.67  649502  325905  133262
    8698.59  654098  329089  134837
    8701.52  658960  332360  136214
    8704.47  663956  335723  137989
    8707.43  667739  338440  140359
    8710.4  673202  341966  144094
    8713.39  676835  344530  148124
    8716.38  681557  347649  152280
    8719.4  685294  350295  155178
    8722.42  691119  353978  157426
    8725.45  696194  357318  159174
    8728.5  700560  360285  160818
    8731.55  705426  363504  162553
    8734.63  709150  366205  163814
    8737.7  714952  369927  165378
    8740.81  719531  373044  166557
    8743.91  723596  375923  167506
    8747.03  729063  379521  168707
    8750.16  734696  383245  169956
    8753.31  738445  386029  170760
    8756.46  742935  389188  171730
    8759.64  748470  392952  173041
    8762.82  753213  396321  174280
    8766.01  758304  399842  175644
    8769.22  763332  403406  177043
    8772.43  767682  406573  178385
    8775.66  772782  410181  180206
    8778.91  777804  413748  182418
    8782.16  782983  417460  185260
    8785.43  787782  420942  188616
    8788.71  792509  424423  192648
    8792  797696  428189  197318
    8795.31  802834  431915  201919
    8798.62  806935  435095  205855
    8801.95  812038  438848  209464
    8805.29  817364  442767  212559
    8808.65  821923  446272  214951
    8812.01  827020  450084  217307
    8815.39  832300  454014  219768
    8818.78  837249  457845  222416
    8822.19  841126  461073  225174
    8825.6  843811  463634  228110
    8829.03  834912  459832  228558
    8832.47  856768  473020  237472
    8835.92  860763  476422  241524
    8839.38  851703  472197  241143
    8842.86  876447  487299  250273
    8846.35  881773  491453  253954
    8849.86  886900  495457  257718
    8853.37  891910  499426  261425
    8856.89  896774  503289  264810
    8860.43  901664  507175  267909
    8863.99  906200  510931  270568
    8867.54  911946  515273  273100
    8871.12  917531  519665  275397
    8874.71  922168  523482  277270
    8878.31  927771  527866  279272
    8881.92  933763  532513  281146
    8885.55  937979  536170  282377
    8889.18  943825  540778  284231
    8892.83  949190  545148  286362
    8896.49  954742  549633  289232
    8900.17  960564  554341  293148
    8903.85  965657  558625  297907
    8907.55  970689  562896  303530
    8911.26  975220  566880  309338
    8914.98  980582  571384  315173
    8918.72  986539  576270  320885
    8922.47  991922  580860  325941
    8926.23  997360  585438  330683
    8930  1.00362e+06  590566  335607
    8933.78  1.00874e+06  595065  340048
    8937.58  1.0118e+06  598282  343565
    8941.39  1.01765e+06  603215  348013
    8945.21  1.02391e+06  608389  352663
    8949.05  1.03033e+06  613684  357618
    8952.89  1.03586e+06  618463  362406
    8956.75  1.04184e+06  623519  367375
    8960.62  1.04683e+06  627953  372046
    8964.51  1.0527e+06  633024  377285
    8968.4  1.05793e+06  637750  382670
    8972.31  1.06385e+06  642874  388314
    8976.22  1.06904e+06  647560  393448
    8980.16  1.07488e+06  652684  398713
    8984.1  1.0807e+06  657817  403827
    8988.06  1.08563e+06  662445  408442
    8992.03  1.09088e+06  667275  412941
    8996.01  1.09612e+06  672119  417443
    9000  1.1019e+06  677298  422186
    9004.01  1.10671e+06  681938  426584
    9008.02  1.11248e+06  687185  431209
    9012.06  1.1189e+06  692825  435919
    9016.1  1.12436e+06  697932  440218
    9020.16  1.13004e+06  703188  444821
    9024.23  1.13508e+06  708096  449585
    9028.3  1.14138e+06  713773  455137
    9032.4  1.14613e+06  718523  460331
    9036.5  1.15152e+06  723685  466051
    9040.61  1.15774e+06  729400  472156
    9044.75  1.16347e+06  734856  478249
    9048.89  1.16816e+06  739660  484202
    9053.05  1.17346e+06  744850  490682
    9057.2  1.17903e+06  750189  497334
    9061.38  1.18267e+06  754397  503250
    9065.58  1.18661e+06  759002  509342
    9069.78  1.19271e+06  764561  516014
    9073.99  1.20117e+06  771958  523788
    9078.22  1.20277e+06  774986  528753
    9082.46  1.20823e+06  780498  535637
    9086.72  1.20848e+06  782698  540442
    9090.98  1.21881e+06  791242  549417
    9095.25  1.22957e+06  800337  558799
    9099.55  1.23342e+06  804911  564997
    9103.84  1.22663e+06  802357  566485
    9108.16  1.24575e+06  817059  580209
    9112.49  1.24866e+06  821014  586408
    9116.83  1.25886e+06  829852  596082
    9121.18  1.26436e+06  835576  603667
    9125.54  1.2655e+06  838531  609155
    9129.91  1.2699e+06  843609  615998
    9134.3  1.27835e+06  851318  624534
    9138.7  1.28624e+06  858837  632772
    9143.11  1.29046e+06  863832  638868
    9147.54  1.29575e+06  869621  645469
    9151.98  1.30197e+06  876094  652740
    9156.43  1.30707e+06  881749  659562
    9160.89  1.31184e+06  887230  666455
    9165.36  1.31808e+06  893773  674323
    9169.84  1.32299e+06  899393  681927
    9174.34  1.32985e+06  906366  690868
    9178.86  1.33423e+06  911674  698800
    9183.38  1.34096e+06  918626  707836
    9187.92  1.34488e+06  923708  715287
    9192.46  1.3513e+06  930520  723970
    9197.02  1.35605e+06  936213  731833
    9201.59  1.3618e+06  942595  740336
    9206.18  1.36647e+06  948221  748387
    9210.77  1.37258e+06  954925  757632
    9215.39  1.37742e+06  960700  766407
    9220  1.3827e+06  966907  775595
    9224.64  1.38817e+06  973275  785455
    9229.28  1.3936e+06  979550  795093
    9233.94  1.3982e+06  985327  804347
    9238.61  1.40213e+06  990636  813153
    9243.3  1.40039e+06  992059  818932
    9247.99  1.414e+06  1.00417e+06  833398
    9252.7  1.42022e+06  1.01127e+06  843932
    9257.42  1.42422e+06  1.01674e+06  853083
    9262.15  1.42137e+06  1.01733e+06  858213
    9266.89  1.43558e+06  1.03001e+06  873566
    9271.65  1.44346e+06  1.03836e+06  885229
    9276.42  1.44799e+06  1.04436e+06  894983
    9281.2  1.45393e+06  1.05135e+06  905547
    9286  1.45795e+06  1.05696e+06  914924
    9290.8  1.46343e+06  1.06369e+06  925284
    9295.62  1.46836e+06  1.07005e+06  935233
    9300.45  1.47358e+06  1.07664e+06  945212
    9305.29  1.47877e+06  1.08323e+06  955318
    9310.15  1.48556e+06  1.09098e+06  966603
    9315.01  1.48996e+06  1.09704e+06  976604
    9319.9  1.49574e+06  1.10414e+06  987607
    9324.78  1.50187e+06  1.1115e+06  998941
    9329.69  1.50452e+06  1.11641e+06  1.0083e+06
    9334.61  1.51206e+06  1.12491e+06  1.02102e+06
    9339.54  1.51624e+06  1.13088e+06  1.03157e+06
    9344.48  1.52207e+06  1.1382e+06  1.04353e+06
    9349.43  1.52697e+06  1.14481e+06  1.05503e+06
    9354.4  1.53193e+06  1.15157e+06  1.06677e+06
    9359.38  1.53848e+06  1.15956e+06  1.07964e+06
    9364.37  1.54285e+06  1.16592e+06  1.09127e+06
    9369.37  1.54745e+06  1.1724e+06  1.10308e+06
    9374.38  1.5545e+06  1.18078e+06  1.11659e+06
    9379.41  1.55973e+06  1.18783e+06  1.12895e+06
    9384.46  1.5637e+06  1.194e+06  1.14069e+06
    9389.5  1.5689e+06  1.20104e+06  1.15345e+06
    9394.57  1.57373e+06  1.2079e+06  1.16614e+06
    9399.65  1.57857e+06  1.21481e+06  1.17896e+06
    9404.73  1.58369e+06  1.222e+06  1.19218e+06
    9409.83  1.59017e+06  1.23012e+06  1.20642e+06
    9414.95  1.59539e+06  1.23741e+06  1.2201e+06
    9420.08  1.59892e+06  1.24341e+06  1.23264e+06
    9425.21  1.60557e+06  1.25174e+06  1.24759e+06
    9430.37  1.61042e+06  1.25818e+06  1.2615e+06
    9435.53  1.61449e+06  1.26534e+06  1.27472e+06
    9440.7  1.62029e+06  1.2732e+06  1.28951e+06
    9445.89  1.62626e+06  1.28121e+06  1.30456e+06
    9451.09  1.6316e+06  1.28874e+06  1.31915e+06