File: data/Sr/Sr_slawsonite_15K_03.xdi
# XDI/1.0  SSRL EXAFS Data Collector 1.1 AD.RGN
# Column.1: energy eV
# Column.2: mutrans
# Column.3: murefer
# Column.4: i0
# Beamline.name: SSRL 4-3 (?)
# Element.edge: K
# Element.symbol: Sr
# Mono.d_spacing: 1.92009
# Mono.name: Si(220)
# Mono.notes: (?) unfocussed, detuned 50%, clockwise at E=16800eV
# Sample.formula: SrAl2Si2O8
# Sample.name: slawsonite
# Sample.prep: powder mixed with B2O3
# Sample.reference: unknown
# Sample.temperature: 15K
# Scan.start_time: 1997-03-18 12:50:19
# ///
#    Note: mono d_spacing is nominal!
#--------------------------------------------
# energy     mutrans     murefer      i0
  15700.043  0.267319  -1.01336   33278.602
  15709.991  0.265191  -1.01571   33013.602
  15719.954  0.26316  -1.0178   32799.602
  15729.931   0.2610109  -1.01987     32430.6
  15739.919  0.259058  -1.02102     32105.6
  15749.921  0.257139  -1.02367     31940.6
  15759.935  0.255354  -1.02585     31630.6
  15769.963  0.25364  -1.02726     31157.6
  15780.002  0.251689  -1.02971     30776.6
  15790.057  0.249624  -1.03157     30692.6
  15799.958  0.2479  -1.03366     30133.6
  15810.037  0.246316  -1.03579     29832.6
  15819.965  0.244243  -1.03752     29437.6
  15830.071  0.242554   -1.039621     29084.6
  15840.023  0.240813  -1.04187     28896.6
  15849.989  0.238748  -1.04381     28585.6
  15859.968  0.237226  -1.04588     28165.6
  15869.959  0.235489  -1.04809     27963.6
  15879.964  0.233917  -1.04999     27492.6
  15889.980  0.232285  -1.05205     27181.6
  15900.011  0.230619  -1.05426     26899.6
  15910.055  0.229065  -1.05634     26568.6
  15919.941  0.227116  -1.05842     26259.6
  15930.011  0.225391   -1.060455     25987.6
  15939.925  0.223939  -1.06258     25604.6
  15950.020  0.222132  -1.0649     25333.6
  15959.959  0.220534  -1.06683     24936.6
  15970.079  0.218581  -1.06851     24631.6
  15980.045  0.21727  -1.07045     24385.6
  15990.021  0.215785  -1.07268     24087.6
  16000.012  0.213921  -1.07472     23761.6
  16010.014  0.21255  -1.07695     23559.6
  16020.030  0.210928  -1.07885     23180.6
  16030.059   0.2093786  -1.08067     23080.6
  16039.929   0.2081696    -1.08237     22695.6
  16049.982  0.206897  -1.08411     22339.6
  16060.049  0.206134  -1.08628     22043.6
  16069.959  0.205347  -1.0871     21909.6
  16080.051  0.206565  -1.08804     21573.6
  16081.248  0.206942  -1.08815     21575.6
  16082.448  0.206782  -1.08757     21499.6
  16083.646  0.207587  -1.08818     21456.6
  16084.846  0.207416  -1.08775     21520.6
  16086.215  0.208333  -1.0878     21440.6
  16087.415  0.209204  -1.08768     21418.6
  16088.613  0.209958  -1.08742     21465.6
  16089.813  0.2113  -1.08734     21269.6
  16091.013  0.21216  -1.08664     21359.6
  16092.214  0.214333  -1.08644     21232.6
  16093.586  0.217365  -1.08531     21248.6
  16094.785  0.221342  -1.08454     21158.6
  16095.986  0.227512  -1.08311     21073.6
  16097.187  0.236236  -1.08073     21169.6
  16098.387  0.25102  -1.07762     21028.6
  16099.588  0.271486  -1.073     20921.6
  16100.962  0.305504  -1.06459     20950.6
  16102.162  0.341873  -1.05306     20911.6
  16103.364  0.380427  -1.03736     20943.6
  16104.565   0.4251016  -1.01425     20956.6
  16105.769  0.466208 -0.988251     20887.6
  16106.970  0.50547 -0.959274     20931.6
  16108.173  0.528522 -0.9365     20671.6
  16109.547  0.535117  -0.9137708     20789.6
  16110.750  0.527195 -0.897406     20669.6
  16111.952   0.5151323  -0.8881022     20694.6
  16113.155  0.50179 -0.887148     20646.6
  16114.359  0.488233 -0.891718     20557.6
  16115.563  0.475883 -0.900641     20567.6
  16116.767  0.466665 -0.910367     20584.6
  16118.143  0.459697  -0.9233346     20601.6
  16119.345  0.453796 -0.93428     20516.6
  16120.551  0.448357 -0.943096     20364.6
  16121.754   0.4430003 -0.950478     20453.6
  16122.960  0.436993  -0.9540765     20363.6
  16124.163  0.432114 -0.956687     20230.6
  16125.369  0.427331 -0.957632     20158.6
  16126.746  0.423169 -0.958999     20230.6
  16127.951   0.4201752 -0.95908     20270.6
  16129.157  0.418974 -0.959072     20159.6
  16130.362  0.420366 -0.959224     20114.6
  16131.568  0.422045 -0.958316     20038.6
  16132.774  0.424654 -0.9566     20072.6
  16133.980  0.427047 -0.954703     20022.6
  16135.188  0.430297 -0.952462     19978.6
  16136.568  0.434265 -0.949933     20113.6
  16137.773  0.438581 -0.94834     20031.6
  16138.981  0.443559 -0.94654     19958.6
  16140.188  0.447776 -0.944425     19817.6
  16141.396   0.4530672 -0.942185     19919.6
  16142.603  0.457104 -0.939929     19859.6
  16143.812  0.461431 -0.938097     19842.6
  16145.020  0.463834  -0.9359936     19815.6
  16146.400  0.465582 -0.935415     19598.6
  16147.607  0.465361 -0.935017     19694.6
  16148.817  0.463349 -0.934442     19745.6
  16150.024  0.461264 -0.935029   39220.199
  16151.062  0.458791 -0.935646   39063.184
  16152.271  0.455787 -0.936615   39195.137
  16153.481  0.452702 -0.937751   39211.063
  16154.517  0.450543 -0.939044   38835.953
  16155.727  0.448151 -0.940458   38764.816
  16156.937  0.446094 -0.942122   38681.648
  16158.146  0.444461 -0.943821   38652.449
  16159.528  0.44212 -0.945998   38580.219
  16160.740  0.440358  -0.9478244   38618.957
  16162.122  0.438484 -0.949883   38412.664
  16163.334  0.437115 -0.951258   38356.344
  16164.718  0.435946 -0.953044   38217.988
  16166.102  0.433619  -0.9542286   38154.605
  16167.486  0.431888 -0.955897   38354.191
  16168.871  0.429458 -0.957035   38327.746
  16170.257   0.4269391 -0.95821    38109.27
  16171.642  0.423759 -0.958914   38237.762
  16173.200  0.420612 -0.9594   38066.227
  16174.586  0.418886 -0.959271   37979.656
  16176.146  0.417526 -0.958944   38074.059
  16177.705  0.417268 -0.958519    38234.43
  16179.265  0.417623 -0.957757    38504.77
  16180.825  0.419764 -0.956776   38709.078
  16182.386   0.4224107 -0.95604   38642.355
  16183.946  0.425769 -0.955905   38862.605
  16185.680  0.429003  -0.9553869    39264.82
  16187.242  0.431834 -0.95521   39128.008
  16188.977  0.43504 -0.95536   39176.164
  16190.539  0.437235 -0.955329   39192.289
  16192.275  0.438439 -0.955619   39293.383
  16194.011  0.438441 -0.955654   39398.445
  16195.748  0.438237 -0.955924   39081.477
  16197.485  0.437575 -0.956151    39290.48
  16199.396   0.4367941 -0.956229   39203.449
  16201.134  0.435797 -0.956321   39321.391
  16203.046  0.434159  -0.9566232   39168.301
  16204.785  0.432095 -0.956621    39219.18
  16206.698  0.429905 -0.956936   39257.027
  16208.612    0.427639 -0.957771   39309.848
  16210.525  0.425404 -0.958564   39072.633
  16212.439  0.423114 -0.959531   39336.391
  16214.355  0.420911 -0.960802   39471.117
  16216.271  0.418854 -0.962024   39537.809
  16218.360  0.417036 -0.963526   39484.473
  16220.276  0.415268 -0.964588   39639.109
  16222.367  0.413908  -0.9654229   39748.711
  16224.459  0.413 -0.966367   39587.281
  16226.551  0.412982 -0.966946   39687.824
  16228.644   0.4132081 -0.967433   39772.336
  16230.738   0.4144631 -0.967903   39950.816
  16232.832  0.415377 -0.968599   40049.266
  16234.925  0.415752 -0.968725   40127.684
  16237.194  0.415966 -0.9691    40051.07
  16239.290  0.415367 -0.969218   40299.426
  16241.561  0.414607 -0.969196   40254.754
  16243.832  0.414634 -0.969493   40172.051
  16246.104  0.414464 -0.969818   40293.313
  16248.377  0.414599 -0.969895   40508.547
  16250.650  0.414007 -0.969657   40350.754
  16252.925  0.413372 -0.969792   40771.926
  16255.199  0.413032 -0.969966   40866.066
  16257.649  0.412298 -0.970242    40690.18
  16259.925  0.412649 -0.970932   40945.258
  16262.377  0.413002 -0.971432   40972.309
  16264.830  0.413278 -0.971955   41079.328
  16267.282  0.413207 -0.972334   41081.316
  16269.737  0.413088  -0.9727305   41214.273
  16272.192  0.411732 -0.973031   41403.203
  16274.646  0.410183 -0.973151   41511.098
  16277.279  0.409228 -0.973609   41701.965
  16279.736  0.408669 -0.974073   41547.801
  16282.369  0.40807 -0.974566   41584.605
  16284.828  0.408044 -0.974987   41950.379
  16287.463  0.407812 -0.975536   41775.121
  16290.099  0.407609 -0.976398   42182.832
  16292.735  0.406205 -0.976936   42267.516
  16295.373  0.405246 -0.977702   42267.164
  16298.013  0.403744 -0.978499   42240.785
  16300.827  0.402032 -0.979126   42525.375
  16303.468  0.40107 -0.98004   42607.934
  16306.286  0.400483 -0.980635   42764.461
  16309.104  0.39878 -0.98104   42705.957
  16311.748  0.398154 -0.981661   42830.426
  16314.567  0.397069 -0.982431   43358.859
  16317.388  0.396162 -0.982563   43207.266
  16320.211   0.3963346 -0.982976   43182.641
  16323.212  0.397148 -0.983547   43500.984
  16326.035  0.398309  -0.9835901   43510.297
  16328.861   0.3989138 -0.983817   43757.578
  16331.863  0.3996 -0.984571   44154.832
  16334.867  0.39944 -0.984639   44151.051
  16337.696  0.399445 -0.985172   44190.242
  16340.703  0.399112 -0.985704   44065.402
  16343.710  0.398292 -0.986116   44218.531
  16346.719   0.3971517 -0.986608   44355.629
  16349.905  0.396288 -0.987821   44599.695
  16352.918  0.395251 -0.988405   44912.734
  16355.929  0.393824 -0.989009   44575.738
  16359.119  0.392505 -0.990024   44787.715
  16362.312  0.391149 -0.990972    44874.66
  16365.326  0.389308 -0.991116    45110.57
  16368.521  0.387826 -0.991603   45180.457
  16371.717  0.387006 -0.991966   45153.309
  16374.914  0.386444 -0.992487   45220.129
  16378.111  0.38634 -0.992892   45417.922
  16381.488  0.385506 -0.993192    45417.68
  16384.689  0.385463 -0.994194    45841.41
  16388.068  0.384889 -0.994879   45970.109
  16391.271  0.384732 -0.995548   46167.777
  16394.656  0.384489 -0.996279   45907.414
  16398.039  0.384479 -0.997223    46542.02
  16401.424  0.383791 -0.997827   46504.598
  16404.813  0.383134 -0.998607   46643.145
  16408.199  0.382281 -0.998717   46990.656
  16411.590  0.38179 -0.999544   46852.141
  16415.160  0.380811 -0.999837   46863.594
  16418.553  0.379986  -1.00001   46847.016
  16422.127  0.379319  -1.00058    47099.41
  16425.521  0.378577  -1.0013    47201.77
  16429.098  0.377717  -1.00193   47625.102
  16432.676  0.376595  -1.00243   47322.398
  16436.254  0.375742  -1.00277   47405.668
  16439.834  0.374809  -1.00352   47484.906
  16443.416  0.374842  -1.00428   47697.113
  16447.180  0.37445  -1.00496   48101.293
  16450.766  0.373884  -1.00573   48361.438
  16454.354  0.373403  -1.00634   48234.551
  16458.121   0.3729085  -1.00722   48378.637
  16461.891  0.371785  -1.00781   48368.691
  16465.662  0.371035   -1.008416   48334.715
  16469.438  0.370134   -1.008878   48798.707
  16473.211  0.369465  -1.00957   48837.668
  16476.988  0.369413  -1.01046   48676.602
  16480.768  0.368788   -1.011331     49242.5
  16484.549  0.367726  -1.01181   49238.371
  16488.510  0.366561  -1.01252   49226.211
  16492.295  0.365005  -1.01299    49261.02
  16496.260  0.364548  -1.01373   49634.797
  16500.229  0.363427  -1.01429   49786.543
  16504.199  0.363325  -1.01528   49721.258
  16508.172  0.362336   -1.015971   49940.945
  16512.145  0.361256  -1.01641   50119.598
  16516.121  0.361064   -1.017217   50160.223
  16520.100  0.359903  -1.01784   50276.816
  16524.080   0.3595063  -1.01868   50371.379
  16528.242  0.358657  -1.01914    50339.91
  16532.227  0.357835  -1.01982    50624.41
  16536.393  0.357183   -1.020366   50616.883
  16540.563  0.356749  -1.02156    50890.32
  16544.734  0.356198  -1.02233    50854.73
  16548.906  0.355881  -1.02329   51105.109
  16553.084  0.355017  -1.02405   51214.457
  16557.262   0.3540906  -1.02442   51435.773
  16561.441   0.3525681  -1.02564   51731.063
  16565.807  0.351976    -1.02629   51698.316
  16569.990  0.350698  -1.02646   51604.543
  16574.357  0.349972  -1.02712   52119.734
  16578.549  0.348887  -1.02816   52009.898
  16582.922  0.348038  -1.02863   51843.031
  16587.297  0.346867  -1.02941   52149.133
  16591.674  0.345916  -1.03012   52275.203
  16596.055  0.34591  -1.03084   52282.246
  16600.438  0.344741  -1.03166   52471.254
  16604.822  0.343765  -1.03261   52554.234
  16609.393  0.342868  -1.03283   52655.184
  16613.783  0.342249  -1.03384   52593.102
  16618.357  0.341171  -1.03454   52904.988
  16622.754  0.340596  -1.03574   53100.844
  16627.332  0.339618  -1.03662   53176.668
  16631.916  0.338732  -1.03749   53265.465
  16636.502  0.337949  -1.03816    53407.23
  16641.090   0.3367411  -1.03852   53609.961
  16645.682  0.336078  -1.0395   53614.664
  16650.273  0.33574  -1.04039   53849.336
  16655.053  0.33534  -1.04141    53632.98
  16659.652  0.334334  -1.04195    53842.59
  16664.254  0.333116  -1.0425   53927.168
  16669.043  0.332308  -1.04363   53938.719
  16673.832  0.331849  -1.04469   54097.238
  16678.625  0.331168  -1.04576   54499.727
  16683.420  0.329925  -1.04621   54431.184
  16688.221  0.328892  -1.04694   54682.609
  16693.023  0.327945  -1.04809   54505.004
  16697.828  0.327014  -1.0486   54593.371
  16702.635  0.325237  -1.04922   54838.703
  16707.445  0.324611  -1.05016   54943.008
  16712.445  0.323886  -1.05094   54805.281
  16717.260  0.32376  -1.05204   55051.523
  16722.264  0.321523  -1.05285   55092.734
  16727.271  0.321139  -1.05377   55170.914
  16732.281  0.320637   -1.054406   55190.066
  16737.295  0.319465  -1.05518   55417.184
  16742.313  0.318381  -1.05605   55079.273
  16747.332  0.317012  -1.05659   55300.332
  16752.355  0.316475  -1.05759   55351.359
  16757.381  0.315485  -1.05824   55285.355
  16762.596  0.315088   -1.059195    55297.32
  16767.629  0.313951  -1.05997   55420.254
  16772.852  0.312891  -1.06095    55324.16
  16777.889   0.3116652  -1.0616   55081.035
  16783.117  0.310838  -1.06294   55513.875
  16788.348  0.310464  -1.0636   55620.688
  16793.584  0.308642  -1.06417   55826.469
  16798.822  0.308378  -1.06506   55838.223
  16804.063  0.307668  -1.06592   55990.941
  16809.309  0.307061  -1.06706   56033.629
  16814.744  0.306349   -1.068363   56017.289
  16819.996   0.3053127  -1.06878   55994.918
  16825.438  0.304472  -1.06982   56067.516
  16830.697  0.303773  -1.07077   55996.082
  16836.146  0.303043  -1.07161   56273.617
  16841.600  0.301785  -1.07231   56065.121
  16847.059  0.30075  -1.07358   56343.598
  16852.330  0.300321  -1.07417   56418.039
  16857.982  0.298564  -1.07481   56146.453
  16863.451  0.296771   -1.075678   56271.836
  16868.922  0.295922   -1.076328   56498.188
  16874.396   0.2952098  -1.07738   56374.508
  16880.064  0.29436  -1.07846   56292.801
  16885.547  0.293147  -1.0792   56369.059
  16891.223  0.292563  -1.08016   56290.289
  16896.711  0.291972  -1.08148   56544.484
  16902.396   0.2914379  -1.08176   56461.652
  16908.082  0.290872  -1.08312   56518.789
  16913.773  0.290156   -1.084165   56525.895
  16919.469  0.288488  -1.08487   56721.973
  16925.166  0.287319  -1.08599   56631.016
  16930.869  0.285493  -1.08654   56805.027
  16936.576  0.283759  -1.08732   56994.012
  16942.287  0.28327  -1.08855   56971.965
  16948.191  0.281496  -1.08912   56632.887
  16953.910  0.280516  -1.09007   56716.777
  16959.822  0.279863  -1.091   56731.637
  16965.740  0.28005  -1.09277   56750.469
  16971.471  0.278638  -1.09307   56924.266
  16977.396  0.277615  -1.09379   56948.035
  16983.326  0.276577   -1.094329   57094.773
  16989.260  0.275416  -1.0953    57169.48
  16995.197  0.274737   -1.096632   57016.156
  17001.332  0.273438  -1.09785   57028.801