File: data/Sr/Sr_slawsonite_15K_02.xdi
# XDI/1.0  SSRL EXAFS Data Collector 1.1 AD.RGN
# Column.1: energy eV
# Column.2: mutrans
# Column.3: murefer
# Column.4: i0
# Beamline.name: SSRL 4-3 (?)
# Element.edge: K
# Element.symbol: Sr
# Mono.d_spacing: 1.92009
# Mono.name: Si(220)
# Mono.notes: (?) unfocussed, detuned 50%, clockwise at E=16800eV
# Sample.formula: SrAl2Si2O8
# Sample.name: slawsonite
# Sample.prep: powder mixed with B2O3
# Sample.reference: unknown
# Sample.temperature: 15K
# Scan.start_time: 1997-03-18 12:50:19
# ///
#    Note: mono d_spacing is nominal!
#--------------------------------------------
# energy     mutrans     murefer      i0
  15700.043  0.26511  -1.01748   37011.602
  15709.991  0.262837  -1.02039   36979.602
  15719.954  0.260782  -1.02247   36502.602
  15729.931   0.2588709  -1.02413   36010.602
  15739.919  0.257017  -1.02502   35611.602
  15749.921  0.25482  -1.02775   35667.602
  15759.935  0.253049  -1.02975   35166.602
  15769.963  0.251128  -1.03162   34799.602
  15780.002  0.249454   -1.033848   34316.602
  15790.057  0.24756   -1.035356   33927.602
  15799.958  0.245775  -1.03756   33621.602
  15810.037  0.243665   -1.039792   33420.602
  15819.965  0.24218  -1.04154   32885.602
  15830.071  0.240294  -1.04343     32556.6
  15840.023  0.238724  -1.04528     32218.6
  15849.989  0.236885  -1.04729     31790.6
  15859.968  0.235  -1.04934     31505.6
  15869.959  0.233338  -1.05125     31065.6
  15879.964  0.23161  -1.05312     30763.6
  15889.980  0.230136  -1.05497     30223.6
  15900.011  0.228364  -1.05732     29981.6
  15910.055  0.226735  -1.05927     29596.6
  15919.941  0.225102  -1.06152     29311.6
  15930.011  0.22338  -1.0635     28983.6
  15939.925  0.222119  -1.0655     28678.6
  15950.020  0.22047  -1.06754     28253.6
  15959.959  0.218875  -1.06966     28086.6
  15970.079  0.217269   -1.071533     27688.6
  15980.045  0.215537   -1.073345     27325.6
  15990.021  0.214363  -1.07572     26946.6
  16000.012  0.212528  -1.07746     26601.6
  16010.014  0.211197  -1.07969     26347.6
  16020.030  0.208856  -1.08108     26087.6
  16030.059  0.207348  -1.08321     25729.6
  16039.929  0.206277   -1.084822     25361.6
  16049.982  0.204949  -1.08679     25061.6
  16060.049  0.204378  -1.08881     24713.6
  16069.959  0.203742  -1.09003     24419.6
  16080.051  0.204591  -1.09101     24225.6
  16081.248  0.20458   -1.091027     24345.6
  16082.448  0.204825    -1.09062     24092.6
  16083.646  0.205217   -1.090712     24277.6
  16084.846  0.205613   -1.090417     24068.6
  16086.215  0.206237  -1.09044     24142.6
  16087.415  0.207143  -1.09029     23940.6
  16088.613   0.2077537  -1.09014     23818.6
  16089.813  0.20919  -1.09027     23941.6
  16091.013  0.21052  -1.08946     23921.6
  16092.214  0.21283  -1.08913     23839.6
  16093.586  0.215742  -1.08823     23777.6
  16094.785  0.219561   -1.087159     23726.6
  16095.986  0.225862  -1.08592     23703.6
  16097.187  0.234543  -1.08371     23696.6
  16098.387  0.249655  -1.08055     23519.6
  16099.588  0.269873  -1.0758     23537.6
  16100.962  0.30425  -1.06758     23536.6
  16102.162  0.340493  -1.05643     23536.6
  16103.364  0.379252  -1.04129     23550.6
  16104.565  0.424232  -1.0187     23692.6
  16105.769  0.465128 -0.99327     23291.6
  16106.970  0.504462 -0.965212     23351.6
  16108.173  0.528139 -0.942704     23300.6
  16109.547  0.534927 -0.920759     23317.6
  16110.750  0.525853 -0.904657     23059.6
  16111.952   0.5132603 -0.896333     23001.6
  16113.155  0.49986 -0.895731     23041.6
  16114.359  0.486858 -0.899894     23116.6
  16115.563  0.474258 -0.90826     23029.6
  16116.767  0.465649 -0.918107     23104.6
  16118.143  0.458158 -0.930362     23047.6
  16119.345  0.451971 -0.940905     23051.6
  16120.551   0.4468776 -0.949868     22826.6
  16121.754  0.44099 -0.957111     22835.6
  16122.960  0.435526 -0.960923     22675.6
  16124.163   0.4303311 -0.963325     22842.6
  16125.369  0.425539 -0.963972     22693.6
  16126.746  0.421454 -0.965438     22727.6
  16127.951  0.418314 -0.965893     22598.6
  16129.157   0.4176081 -0.96598     22494.6
  16130.362  0.418728 -0.965457     22656.6
  16131.568  0.420404 -0.964563     22423.6
  16132.774  0.423311 -0.96337     22134.6
  16133.980  0.425843 -0.961418     22357.6
  16135.188  0.429115 -0.959422     22398.6
  16136.568  0.433518  -0.9571344     22267.6
  16137.773  0.437346 -0.955468     22292.6
  16138.981  0.441787 -0.953379     22203.6
  16140.188  0.446056 -0.95146     22298.6
  16141.396  0.451758 -0.949806     22160.6
  16142.603  0.455864  -0.9474818     22095.6
  16143.812   0.4599637 -0.945612     22143.6
  16145.020  0.462523 -0.943621     22087.6
  16146.400  0.463914 -0.942181     22043.6
  16147.607  0.464116 -0.942407     22022.6
  16148.817  0.46212 -0.942131     21913.6
  16150.024   0.4594107 -0.942295   43729.199
  16151.062  0.457175 -0.942918   43734.184
  16152.271  0.454129 -0.943818   43571.137
  16153.481  0.450848 -0.945041   43615.063
  16154.517  0.448432 -0.946147   43482.953
  16155.727  0.445954 -0.947418   43432.816
  16156.937  0.443812 -0.94919   43102.648
  16158.146  0.442024 -0.950724   43157.449
  16159.528   0.4404297 -0.952934   43161.219
  16160.740  0.438991 -0.955087   42744.957
  16162.122  0.437546 -0.957253   42668.664
  16163.334  0.435879 -0.958821   42694.344
  16164.718  0.43433 -0.960057   42889.988
  16166.102  0.432738 -0.961437   42492.605
  16167.486  0.430588 -0.962617   42408.191
  16168.871  0.428705 -0.963923   42339.746
  16170.257  0.42556 -0.965009    42406.27
  16171.642   0.4225411 -0.965354   42446.762
  16173.200  0.4194 -0.966065   42326.227
  16174.586  0.417341 -0.966026   42125.656
  16176.146  0.416037  -0.9657657   42168.059
  16177.705  0.415583 -0.964753    42426.43
  16179.265  0.416267 -0.964234    42658.77
  16180.825  0.418606  -0.9636804   42593.078
  16182.386  0.421083 -0.963127   42834.355
  16183.946  0.424357 -0.962617   43286.605
  16185.680  0.427482 -0.962185    43346.82
  16187.242  0.430852 -0.962303   43533.008
  16188.977  0.43372 -0.962311   43491.164
  16190.539   0.4358101 -0.962449   43396.289
  16192.275  0.43709 -0.96256   43496.383
  16194.011   0.4373949 -0.962589   43659.445
  16195.748  0.437153 -0.963023   43651.477
  16197.485   0.4361932 -0.96306    43590.48
  16199.396  0.435264 -0.963147   43756.449
  16201.134  0.43454 -0.963554   43543.391
  16203.046  0.433022 -0.963837   43612.301
  16204.785  0.43093 -0.963839    43514.18
  16206.698  0.42878  -0.9642689   43819.027
  16208.612  0.426717 -0.964874   43753.848
  16210.525  0.424945 -0.96575   43690.633
  16212.439  0.4231 -0.967029   43885.391
  16214.355  0.420593 -0.967785   43890.117
  16216.271  0.418261 -0.968962   44032.809
  16218.360  0.416234 -0.970351   43857.473
  16220.276  0.414804 -0.971239   44128.109
  16222.367  0.41325 -0.972224   44059.711
  16224.459  0.413047  -0.9733947   44043.281
  16226.551   0.4133118 -0.973973   44293.824
  16228.644  0.413222 -0.974322   44362.336
  16230.738  0.414017  -0.9746628   44666.816
  16232.832  0.415109 -0.975315   44853.266
  16234.925  0.415895 -0.975573   44686.684
  16237.194  0.415898 -0.975981    44885.07
  16239.290  0.415548 -0.976323   44514.426
  16241.561  0.415275 -0.976452   44542.754
  16243.832  0.414889 -0.976603   44740.051
  16246.104     0.41411 -0.976175   45013.313
  16248.377  0.414251 -0.976338   45079.547
  16250.650  0.413295 -0.976501   44964.754
  16252.925  0.413057 -0.976386   45170.926
  16255.199  0.41268 -0.976501   45082.066
  16257.649  0.412378 -0.977013    45152.18
  16259.925   0.4122657 -0.977629   45161.258
  16262.377  0.412073 -0.977938   45346.309
  16264.830  0.412166 -0.978392   45476.328
  16267.282  0.411794 -0.978966   45624.316
  16269.737  0.41133 -0.979258   45828.273
  16272.192  0.410807  -0.9794931   45830.203
  16274.646  0.409879 -0.979697   45833.098
  16277.279  0.408544 -0.98003   45899.965
  16279.736   0.4078994 -0.980458   46226.801
  16282.369  0.407522  -0.9810158   46078.605
  16284.828  0.407537 -0.981664   46157.379
  16287.463  0.407739 -0.982385   46410.121
  16290.099  0.406927 -0.982993   46409.832
  16292.735   0.4062238 -0.98383   46492.516
  16295.373  0.404838 -0.984679   46693.164
  16298.013   0.4033451 -0.985242   47245.785
  16300.827  0.401669 -0.985796   47523.375
  16303.468  0.400718 -0.986335   47320.934
  16306.286  0.399728 -0.987403   47109.461
  16309.104  0.398303 -0.987974   47154.957
  16311.748  0.397257 -0.988657   47292.426
  16314.567  0.396182 -0.98924   47240.859
  16317.388  0.39567 -0.989664   47529.266
  16320.211  0.395954 -0.989769   47724.641
  16323.212   0.3967085 -0.990295   47616.984
  16326.035  0.397436  -0.9902859   48003.297
  16328.861  0.398619 -0.990457   48197.578
  16331.863  0.398815 -0.990696   48144.832
  16334.867  0.399159 -0.991164   48181.051
  16337.696  0.39901 -0.991625   48229.242
  16340.703  0.398784 -0.99263   48385.402
  16343.710  0.398134 -0.993463   48428.531
  16346.719  0.396981  -0.9940706   48503.629
  16349.905  0.3958 -0.99454   48777.695
  16352.918  0.394208 -0.995119   49122.734
  16355.929   0.3932975 -0.996206   49006.738
  16359.119  0.391995 -0.996855   49093.715
  16362.312  0.390199 -0.99734    49148.66
  16365.326   0.3888512 -0.997946    49651.57
  16368.521  0.3874 -0.998702   49508.457
  16371.717  0.387278 -0.999171   49755.309
  16374.914  0.386483 -0.999458   49618.129
  16378.111  0.386126 -0.999669   49699.922
  16381.488  0.386142  -1.00065    49951.68
  16384.689  0.385813  -1.00131    50193.41
  16388.068  0.385277  -1.00176   50564.109
  16391.271  0.38468  -1.00206   50359.777
  16394.656  0.384117  -1.00288   50615.414
  16398.039   0.3841007   -1.003971    50549.02
  16401.424  0.383764  -1.0046   50846.598
  16404.813  0.383168  -1.00515   50752.145
  16408.199  0.382319  -1.00597   51018.656
  16411.590  0.38161  -1.00668   51321.141
  16415.160  0.38052  -1.00688   51139.594
  16418.553  0.379943   -1.007107   51391.016
  16422.127  0.378931  -1.00788    51105.41
  16425.521  0.37823  -1.00861    51498.77
  16429.098  0.377304  -1.009   51502.102
  16432.676  0.375988   -1.009546   51865.398
  16436.254  0.375061  -1.00986   52093.668
  16439.834  0.374599  -1.01066   52179.906
  16443.416   0.3745464  -1.01122   52043.113
  16447.180  0.373918  -1.01157   52190.293
  16450.766  0.373972  -1.01253   52358.438
  16454.354  0.373436  -1.01334   52755.551
  16458.121  0.372904  -1.01431   52661.637
  16461.891  0.372048   -1.014774   52875.691
  16465.662  0.370936  -1.01546   53046.715
  16469.438  0.370347  -1.01607   52904.707
  16473.211  0.369415  -1.01649   52977.668
  16476.988  0.368849  -1.01714   53101.602
  16480.768  0.368228  -1.01797     53430.5
  16484.549  0.367211   -1.018497   53333.371
  16488.510  0.366243  -1.01946   53644.211
  16492.295  0.364836  -1.01986    53791.02
  16496.260  0.363319  -1.02059   53860.797
  16500.229  0.363047  -1.02124   53646.543
  16504.199  0.362427  -1.02166   53823.258
  16508.172  0.361525  -1.0227   54374.945
  16512.145  0.360506  -1.02337   54461.598
  16516.121  0.359723  -1.02388   54350.223
  16520.100  0.360148  -1.02454   54156.816
  16524.080  0.360156   -1.025387   54961.379
  16528.242  0.360073  -1.02617    54983.91
  16532.227  0.359311  -1.02688    54801.41
  16536.393  0.358682  -1.02727   54647.883
  16540.563  0.357145  -1.02792    54902.32
  16544.734  0.356567  -1.02873    55488.73
  16548.906  0.355891  -1.02935   55385.109
  16553.084  0.354862  -1.02999   55340.457
  16557.262  0.353667  -1.03059   55508.773
  16561.441  0.352691  -1.0314   55508.063
  16565.807   0.3514624  -1.03197   55996.316
  16569.990  0.350627  -1.03234   55704.543
  16574.357  0.349987  -1.03329   55744.734
  16578.549  0.348841  -1.03397   56110.898
  16582.922  0.348044  -1.03473   56180.031
  16587.297   0.3478126  -1.03539   55945.133
  16591.674  0.346652  -1.03623   56217.203
  16596.055  0.345654  -1.03685   56205.246
  16600.438   0.3453437  -1.0379   56459.254
  16604.822  0.344352  -1.03863   56502.234
  16609.393  0.343909   -1.039356   56535.184
  16613.783  0.343403  -1.04024   56749.102
  16618.357   0.3421254  -1.04065   56694.988
  16622.754  0.341186  -1.04152   56970.844
  16627.332  0.340273  -1.04232   57001.668
  16631.916   0.3394462  -1.04315   57048.465
  16636.502  0.33867  -1.04393    57290.23
  16641.090  0.338158   -1.044693   57233.961
  16645.682  0.337445  -1.04548   57457.664
  16650.273  0.336659  -1.04638   57486.336
  16655.053   0.3355675  -1.04716    57632.98
  16659.652  0.33439  -1.04784    57768.59
  16664.254  0.333756  -1.04847   57741.168
  16669.043  0.332434  -1.04953   57598.719
  16673.832  0.331586  -1.05053   57790.238
  16678.625  0.330952  -1.05116   58025.727
  16683.420   0.3297312  -1.05178   58157.184
  16688.221  0.329073  -1.05265   58369.609
  16693.023  0.328173  -1.05356   58405.004
  16697.828  0.327207  -1.05449   58332.371
  16702.635   0.3257985  -1.05495   58261.703
  16707.445  0.325321  -1.05588   58626.008
  16712.445  0.324533  -1.05666   58595.281
  16717.260  0.323718  -1.05746   58561.523
  16722.264  0.323404  -1.05855   58975.734
  16727.271  0.322389  -1.05914   58806.914
  16732.281  0.322009  -1.06029   58917.066
  16737.295  0.320829  -1.06105   58806.184
  16742.313  0.320083   -1.062132   59047.273
  16747.332  0.319145  -1.06307   58891.332
  16752.355  0.317546   -1.063355   58912.359
  16757.381   0.3163415  -1.06398   58753.355
  16762.596  0.315332  -1.06475    58862.32
  16767.629    0.315129  -1.06635   59291.254
  16772.852  0.313806   -1.066936    58970.16
  16777.889  0.312578  -1.06731   58617.035
  16783.117  0.312455  -1.06894   59166.875
  16788.348   0.3114809  -1.06955   59265.688
  16793.584  0.310404  -1.07004   59078.469
  16798.822    0.309611  -1.07106   59231.223
  16804.063  0.307991  -1.07178   59584.941
  16809.309  0.307027  -1.07251   59420.629
  16814.744   0.3060521  -1.07338   59314.289
  16819.996  0.305216  -1.07424   59195.918
  16825.438  0.30422  -1.0748   59313.516
  16830.697   0.3028034   -1.075154   59491.082
  16836.146  0.301621  -1.0759   59442.617
  16841.600  0.300765  -1.07703   59381.121
  16847.059   0.3002359  -1.07816   59626.598
  16852.330  0.299626  -1.07913   59597.039
  16857.982  0.298331  -1.0799   59479.453
  16863.451  0.296203  -1.0804   59453.836
  16868.922  0.296037  -1.08158   59687.188
  16874.396  0.295112  -1.08244   59677.508
  16880.064   0.2944791  -1.08328   59636.801
  16885.547  0.293717   -1.084349   59866.059
  16891.223  0.293694  -1.08535   59573.289
  16896.711  0.291826  -1.08604   59662.484
  16902.396  0.290953  -1.08691   59616.652
  16908.082  0.290512  -1.08801   59565.789
  16913.773  0.28929  -1.08899   59752.895
  16919.469  0.288091  -1.08948   59625.973
  16925.166  0.28722  -1.09059   59632.016
  16930.869  0.286332  -1.09107   59814.027
  16936.576  0.284794   -1.091839   59825.012
  16942.287  0.284392  -1.0927   59754.965
  16948.191  0.283274  -1.09377   59924.887
  16953.910  0.281751  -1.09436   59828.777
  16959.822  0.281194  -1.09584   59864.637
  16965.740  0.279957  -1.09646   59805.469
  16971.471  0.27852  -1.09675   59812.266
  16977.396  0.277229  -1.09791   59846.035
  16983.326  0.27634  -1.09918   59924.773
  16989.260  0.2761   -1.100088    59881.48
  16995.197  0.275816  -1.10073   60000.156
  17001.332  0.274983  -1.10194   60027.801