File: data/Sr/Sr_slawsonite_15K_01.xdi
# XDI/1.0  SSRL EXAFS Data Collector 1.1 AD.RGN
# Column.1: energy eV
# Column.2: mutrans
# Column.3: murefer
# Column.4: i0
# Beamline.name: SSRL 4-3 (?)
# Element.edge: K
# Element.symbol: Sr
# Mono.d_spacing: 1.92009
# Mono.name: Si(220)
# Mono.notes: (?) unfocussed, detuned 50%, clockwise at E=16800eV
# Sample.formula: SrAl2Si2O8
# Sample.name: slawsonite
# Sample.prep: powder mixed with B2O3
# Sample.reference: unknown
# Sample.temperature: 15K
# Scan.start_time: 1997-03-18 12:50:19
# ///
#    Note: mono d_spacing is nominal!
#--------------------------------------------
# energy     mutrans     murefer      i0
  15700.043  0.244357  -1.03166   55173.602
  15709.991  0.242024  -1.03336   54582.602
  15719.954  0.241878  -1.0348   54369.602
  15729.931  0.241365  -1.03622   53767.602
  15739.919  0.23974    -1.03716   52560.602
  15749.921  0.238748  -1.03944   52998.602
  15759.935  0.237503  -1.04112   52473.602
  15769.963  0.236456  -1.04247   52014.602
  15780.002  0.233375  -1.04466   51436.602
  15790.057  0.232702  -1.04603   50913.602
  15799.958  0.232136  -1.04738   50420.602
  15810.037     0.23124  -1.04879   49896.602
  15819.965  0.229801  -1.05039   49375.602
  15830.071  0.227921  -1.05246   48957.602
  15840.023  0.226895  -1.05387   48430.602
  15849.989  0.225808  -1.05538   47861.602
  15859.968  0.224654  -1.05701   47265.602
  15869.959  0.222826  -1.05876   46850.602
  15879.964  0.221276  -1.06056   46362.602
  15889.980   0.2197536  -1.06236   45909.602
  15900.011  0.21833  -1.06401   45366.602
  15910.055  0.216773  -1.06578   44893.602
  15919.941  0.215726  -1.06724   44346.602
  15930.011  0.213742  -1.06919   43951.602
  15939.925  0.212491  -1.07095   43504.602
  15950.020  0.211175  -1.07234   42886.602
  15959.959  0.210077  -1.07374   42454.602
  15970.079  0.208255  -1.07644   42043.602
  15980.045  0.207503  -1.07748   41385.602
  15990.021  0.205636   -1.079089   41142.602
  16000.012   0.2044181  -1.0805   40638.602
  16010.014  0.202987  -1.08231   40194.602
  16020.030  0.201444  -1.08403   39803.602
  16030.059  0.200145  -1.08578   39270.602
  16039.929  0.199007  -1.08731   38830.602
  16049.982  0.198265  -1.0883   38333.602
  16060.049  0.197098  -1.09022   37968.602
  16069.959  0.197143  -1.09073   37351.602
  16080.051  0.19798  -1.09113   36902.602
  16081.248  0.198177  -1.09162   36941.602
  16082.448  0.198633  -1.09147   36820.602
  16083.646  0.198819  -1.09195   36861.602
  16084.846  0.19956  -1.09131   36588.602
  16086.215  0.199764  -1.09175   36604.602
  16087.415  0.200976  -1.09089   36388.602
  16088.613  0.201726  -1.09115   36452.602
  16089.813  0.203156  -1.09051   36166.602
  16091.013  0.204633  -1.0904   36136.602
  16092.214  0.206689  -1.08966   36053.602
  16093.586  0.209586  -1.08897   35964.602
  16094.785  0.213239  -1.08792   35905.602
  16095.986  0.219461  -1.08634   35682.602
  16097.187  0.228497  -1.08432   35649.602
  16098.387  0.243403  -1.08105   35530.602
  16099.588  0.26393  -1.07623   35470.602
  16100.962  0.298045  -1.06847   35444.602
  16102.162  0.335168  -1.05735   35206.602
  16103.364  0.374516  -1.04223   35201.602
  16104.565  0.41941  -1.02008   35202.602
  16105.769  0.460925 -0.994855   35134.602
  16106.970  0.500239 -0.968303   34958.602
  16108.173   0.5240413 -0.946793   34829.602
  16109.547  0.530661 -0.925694   34722.602
  16110.750  0.521543 -0.91046   34609.602
  16111.952  0.508017 -0.902566   34631.602
  16113.155  0.493383 -0.902931   34462.602
  16114.359  0.480113 -0.908473   34255.602
  16115.563  0.467591 -0.917115   34381.602
  16116.767  0.459536 -0.926799   34197.602
  16118.143  0.452447 -0.938909   34001.602
  16119.345  0.446586 -0.948804   33993.602
  16120.551   0.4407946 -0.956837   34036.602
  16121.754  0.435272 -0.963435   33830.602
  16122.960  0.430013  -0.9670612   33671.602
  16124.163  0.424699 -0.969204   33621.602
  16125.369  0.420175 -0.970206   33419.602
  16126.746  0.415639 -0.970939   33489.602
  16127.951  0.41297 -0.971753   33368.602
  16129.157  0.412186 -0.971683   33215.602
  16130.362   0.4131625 -0.971114   33125.602
  16131.568  0.415172 -0.970109   32919.602
  16132.774  0.417681 -0.968775   32821.602
  16133.980  0.420399 -0.967101     32720.6
  16135.188  0.423493  -0.9647303   32826.602
  16136.568  0.428234 -0.96294     32672.6
  16137.773  0.432605 -0.961728     32604.6
  16138.981  0.437092 -0.959537     32619.6
  16140.188  0.441542 -0.957639     32511.6
  16141.396  0.446679  -0.9558034     32444.6
  16142.603  0.451034 -0.953861     32303.6
  16143.812  0.454658 -0.951767     32310.6
  16145.020  0.458041 -0.950616     32078.6
  16146.400  0.460796 -0.949959     31916.6
  16147.607  0.460209 -0.949292     31986.6
  16148.817  0.458568 -0.949306     31826.6
  16150.024  0.456002 -0.949811   63553.199
  16151.062  0.453779 -0.950504   63256.184
  16152.271  0.45073 -0.951295   62999.137
  16153.481  0.447687 -0.952439   62795.063
  16154.517  0.445413 -0.953699   62531.953
  16155.727   0.4427678 -0.954886   62238.816
  16156.937  0.4408 -0.956485   61915.648
  16158.146  0.439069 -0.958175   61862.449
  16159.528   0.4373226 -0.960005   61633.219
  16160.740  0.435666  -0.9618457   61440.957
  16162.122   0.4345192 -0.963749   61150.664
  16163.334  0.433023 -0.965207   60941.344
  16164.718  0.431299 -0.966471   60827.988
  16166.102   0.4295651 -0.967984   60609.605
  16167.486  0.427504 -0.969063   60542.191
  16168.871  0.425043 -0.970163   60329.746
  16170.257  0.422361 -0.971142    60054.27
  16171.642  0.419446 -0.972046   59867.762
  16173.200   0.4165589 -0.972608   59527.227
  16174.586   0.4144569 -0.972615   59635.656
  16176.146  0.413119 -0.972163   59801.059
  16177.705  0.412824 -0.971763    59753.43
  16179.265  0.413379 -0.970714    59984.77
  16180.825  0.41551 -0.969926   60184.078
  16182.386  0.418383 -0.969636   60173.355
  16183.946  0.421294 -0.968759   60531.605
  16185.680  0.424985 -0.968863    60701.82
  16187.242  0.427841 -0.968888   60639.008
  16188.977  0.431051 -0.968997   60612.164
  16190.539   0.4329311 -0.968936   60758.289
  16192.275  0.434439 -0.969188   60667.383
  16194.011  0.434738 -0.969324   60697.445
  16195.748  0.434471  -0.9698589   60285.477
  16197.485  0.433764  -0.9701223    60356.48
  16199.396  0.432652 -0.970036   60108.449
  16201.134  0.431629  -0.9702189   60243.391
  16203.046  0.430038 -0.970448   60185.301
  16204.785  0.428191 -0.970819    60242.18
  16206.698   0.4259838 -0.971148   60110.027
  16208.612  0.423772 -0.971974   60090.848
  16210.525  0.421236  -0.9726155   60030.633
  16212.439   0.4188402 -0.973797   59998.391
  16214.355   0.4163404 -0.974728   59861.117
  16216.271  0.414207 -0.975699   60069.809
  16218.360  0.412341 -0.97686   59947.473
  16220.276  0.41073 -0.977904   60118.109
  16222.367  0.409761 -0.979128   60112.711
  16224.459  0.409138 -0.979807   60197.281
  16226.551  0.409305 -0.980491   60318.824
  16228.644  0.40971  -0.9811265   60260.336
  16230.738  0.41037 -0.981494   60367.816
  16232.832  0.411238 -0.98186   60195.266
  16234.925  0.411848 -0.98221   60459.684
  16237.194  0.412123 -0.982593    60331.07
  16239.290  0.411982  -0.9828791   60358.426
  16241.561  0.41151 -0.983234   60288.754
  16243.832  0.410983 -0.983287   60445.051
  16246.104  0.41075 -0.983554   60225.313
  16248.377  0.410674 -0.983665   60589.547
  16250.650  0.410512  -0.9836423   60631.754
  16252.925  0.409827 -0.983698   60569.926
  16255.199  0.409213 -0.983622   60696.066
  16257.649  0.408831 -0.983899    60887.18
  16259.925  0.408783 -0.984584   61151.258
  16262.377  0.408994 -0.985313   61068.309
  16264.830  0.409581 -0.986176   61160.328
  16267.282    0.410006 -0.986767   61102.316
  16269.737  0.409366 -0.98689   61259.273
  16272.192  0.408483 -0.987248   61285.203
  16274.646  0.407253  -0.9875807   61210.098
  16277.279  0.406128 -0.987622   61274.965
  16279.736  0.405577 -0.988086   61428.801
  16282.369  0.405096 -0.988343   61823.605
  16284.828  0.404883 -0.988831   61768.379
  16287.463  0.405011 -0.989757   61770.121
  16290.099   0.4047037 -0.990589   61942.832
  16292.735  0.403778 -0.991153   62045.516
  16295.373   0.4026598 -0.992075   62034.164
  16298.013   0.4012547 -0.992899   62040.785
  16300.827  0.399526 -0.993419   62067.375
  16303.468  0.39854 -0.994134   62185.934
  16306.286  0.397321 -0.994669   62435.461
  16309.104  0.396484 -0.995361   62563.957
  16311.748   0.3952059 -0.995969   62526.426
  16314.567  0.394058 -0.996471   62720.859
  16317.388  0.39343 -0.997014   62713.266
  16320.211  0.393481 -0.997191   62629.641
  16323.212  0.394178 -0.997465   62750.984
  16326.035  0.395038 -0.997792   62630.297
  16328.861  0.39581 -0.998001   62934.578
  16331.863  0.396408 -0.998423   62893.832
  16334.867  0.396554 -0.998801   62985.051
  16337.696  0.39659 -0.999153   63252.242
  16340.703  0.395899  -0.9997128   63186.402
  16343.710  0.39524  -1.00029   63474.531
  16346.719  0.394281  -1.001   63419.629
  16349.905  0.392982  -1.00161   63387.695
  16352.918  0.391656  -1.00257   63578.734
  16355.929  0.390615  -1.0032   63627.738
  16359.119  0.389602  -1.00404   63837.715
  16362.312  0.388032  -1.00477    63744.66
  16365.326  0.386295  -1.00517    63873.57
  16368.521   0.3849825  -1.00577   64005.457
  16371.717  0.38433  -1.00629   64126.309
  16374.914  0.383985  -1.00672   64174.129
  16378.111  0.383824  -1.00695   64770.922
  16381.488  0.38337  -1.00775    64614.68
  16384.689  0.383273  -1.00843    64377.41
  16388.068   0.3831718  -1.00922   64549.109
  16391.271  0.382866   -1.010061   64431.777
  16394.656  0.38258  -1.01076   64739.414
  16398.039  0.382341  -1.01143    64742.02
  16401.424  0.383536  -1.01226   65060.598
  16404.813  0.384049  -1.01294   65197.145
  16408.199  0.381532  -1.01332   65566.656
  16411.590  0.379895  -1.01409   65211.141
  16415.160  0.379209  -1.01435   65356.594
  16418.553  0.378278  -1.01497   65131.016
  16422.127  0.377449  -1.0156    65294.41
  16425.521  0.37712  -1.01607    65472.77
  16429.098  0.376711  -1.01659   65424.102
  16432.676  0.375728  -1.01738   65518.398
  16436.254  0.376944  -1.01783   65781.672
  16439.834  0.376368  -1.01841   66171.906
  16443.416  0.372904  -1.01901   65889.117
  16447.180  0.372857  -1.01981   65807.289
  16450.766  0.372362  -1.02036   66038.438
  16454.354  0.372085   -1.021238   66273.555
  16458.121  0.371487  -1.02191   66633.641
  16461.891  0.370507  -1.02248   66486.688
  16465.662  0.369983  -1.02333   66575.711
  16469.438  0.369475  -1.02407   66840.711
  16473.211  0.369117  -1.02482   66581.672
  16476.988  0.368596  -1.02544   66907.602
  16480.768    0.367929  -1.02612     66983.5
  16484.549  0.36686  -1.02674   66876.367
  16488.510  0.365235  -1.0274   66853.211
  16492.295  0.363996  -1.02797   67168.016
  16496.260  0.363022  -1.0286   67128.797
  16500.229  0.362212  -1.02934   67215.539
  16504.199  0.361834   -1.029895   67180.258
  16508.172  0.360396  -1.03037   67364.945
  16512.145  0.360211  -1.03108   67696.602
  16516.121   0.3595593  -1.03191   67499.227
  16520.100  0.358877  -1.03257   67763.813
  16524.080  0.358883  -1.03367   67287.375
  16528.242  0.357935  -1.03394   67337.914
  16532.227  0.357591  -1.03488   67703.414
  16536.393  0.356835  -1.0353   67764.883
  16540.563  0.356371    -1.03611    67987.32
  16544.734  0.355801  -1.03685   68103.734
  16548.906  0.355015  -1.03756   68178.109
  16553.084  0.353903   -1.037941   67976.461
  16557.262   0.3531622  -1.0389   67865.773
  16561.441  0.351856  -1.03994   67930.063
  16565.807  0.350796  -1.04065   67921.313
  16569.990  0.349892  -1.04112   67836.539
  16574.357  0.348957  -1.04202   67953.734
  16578.549  0.34775  -1.04242   68299.898
  16582.922  0.346576  -1.04297   68134.031
  16587.297  0.34612  -1.04387   68123.133
  16591.674  0.345264  -1.04457   68130.203
  16596.055  0.344729  -1.04514   67827.242
  16600.438  0.344194  -1.04606   67822.258
  16604.822  0.343203  -1.04687   68137.234
  16609.393  0.342611  -1.04742    68511.18
  16613.783  0.34176   -1.048243   68246.102
  16618.357  0.340908  -1.0491   68142.984
  16622.754  0.339913  -1.04985   68101.844
  16627.332  0.338906  -1.05084   68462.672
  16631.916  0.338057  -1.0517   68324.461
  16636.502  0.337287  -1.05236   68242.227
  16641.090  0.33673  -1.0526   68343.961
  16645.682  0.335723  -1.05324   68256.664
  16650.273  0.335147  -1.05413   68369.336
  16655.053  0.334441   -1.055033   68356.977
  16659.652  0.333693  -1.05588   68436.586
  16664.254  0.332834  -1.05659   68225.172
  16669.043  0.331365  -1.05731   67898.719
  16673.832  0.330316  -1.05842   68443.234
  16678.625  0.329597  -1.05917   68565.727
  16683.420  0.328926  -1.05992    68352.18
  16688.221   0.3277511  -1.06073   68437.609
  16693.023   0.3270502  -1.06169   68508.008
  16697.828  0.325788  -1.06238   68315.367
  16702.635  0.324797  -1.06296   68459.703
  16707.445  0.323917  -1.06379   68415.008
  16712.445  0.322065  -1.06426   68436.281
  16717.260   0.3221538  -1.06535   68431.523
  16722.264  0.321136  -1.06611   68018.734
  16727.271  0.320633  -1.06697   68189.914
  16732.281  0.319973  -1.06783   68233.063
  16737.295  0.318364   -1.068391   68218.188
  16742.313  0.318366  -1.0696   68178.273
  16747.332    0.316992  -1.07014   68043.328
  16752.355  0.315912  -1.0709   68175.359
  16757.381  0.315367  -1.07209   68250.352
  16762.596  0.314625  -1.07276    67921.32
  16767.629  0.313631  -1.07344   67730.258
  16772.852   0.3130657  -1.07423   67716.156
  16777.889  0.312173  -1.07518   67371.031
  16783.117  0.311081  -1.07608   67569.875
  16788.348  0.310254  -1.07676   67810.688
  16793.584  0.309794  -1.07797   67931.469
  16798.822  0.308182  -1.07857   67964.219
  16804.063  0.306688  -1.07912   67471.938
  16809.309  0.306025  -1.07987   67495.633
  16814.744  0.305089  -1.08097   67491.289
  16819.996  0.304185  -1.08173   67568.914
  16825.438  0.303854  -1.08229   67541.516
  16830.697   0.3030135  -1.08325   67248.078
  16836.146  0.301861  -1.08389   67438.617
  16841.600  0.301325  -1.08457   67216.125
  16847.059   0.2999957  -1.0854   67264.594
  16852.330   0.2990744  -1.08638   67115.039
  16857.982  0.298139  -1.0871   66878.453
  16863.451  0.296907  -1.08811   67028.836
  16868.922   0.2957252  -1.08905   66944.188
  16874.396  0.294436  -1.08983   66770.508
  16880.064  0.294508  -1.09097   66538.797
  16885.547  0.293789  -1.09166   66657.055
  16891.223  0.291981  -1.09223   66465.289
  16896.711   0.2906949  -1.09278   66716.484
  16902.396  0.28944  -1.0937   66800.656
  16908.082  0.288912  -1.09462   66421.789
  16913.773  0.287897  -1.09544   66565.898
  16919.469  0.287587  -1.09675   66505.969
  16925.166  0.286024  -1.09743   66444.016
  16930.869  0.285307  -1.09835   66502.031
  16936.576  0.28442  -1.09949   66429.016
  16942.287  0.283585  -1.10027   66385.961
  16948.191  0.282083  -1.10106   66327.883
  16953.910  0.280914   -1.101433   66099.781
  16959.822   0.2804303  -1.10265   65996.641
  16965.740  0.279102  -1.10364   65852.469
  16971.471  0.278574  -1.10448   65885.266
  16977.396  0.277745  -1.10555   65708.031
  16983.326  0.276438  -1.10624   65847.773
  16989.260  0.275383  -1.10731   66036.477
  16995.197  0.274093  -1.10784   65721.156
  17001.332  0.273278  -1.10876   65877.797