File: data/Sr/Sr_slawsonite_rt_01.xdi
# XDI/1.0  SSRL EXAFS Data Collector 1.1 AD.RGN
# Column.1: energy eV
# Column.2: mutrans
# Column.3: i0
# Beamline.name: SSRL 4-3 (?)
# Element.edge: K
# Element.symbol: Sr
# Mono.d_spacing: 1.92009
# Mono.name: Si(220)
# Mono.notes: (?) unfocussed, detuned 75%, clockwise at E=16300eV
# Sample.formula: SrAl2(SiO4)2
# Sample.name: slawsonite
# Sample.prep: powder mixed with B2O3
# Sample.reference: none
# Sample.temperature: room temperature
# Scan.start_time: 1997-03-18 19:29:57
# ///
#    Note: mono d_spacing is nominal!
#--------------------------------------------
# energy     mutrans      i0
  15700.043  0.167002   70449.602
  15709.991  0.167417   70347.602
  15719.954  0.165966   69905.602
  15729.931  0.167279   69712.602
  15739.919  0.17652   68498.602
  15749.921  0.162403   69040.602
  15759.935  0.163862   68765.602
  15769.963    0.162124   68321.602
  15780.002  0.162854   68112.602
  15790.057  0.162959   67912.602
  15799.958   0.1648769   67790.602
  15810.037   0.1634032   67364.602
  15819.965  0.161789   66925.602
  15830.071  0.163143   66719.602
  15840.023  0.164961   66647.602
  15849.989  0.160086   65884.602
  15859.968   0.1644616   65989.602
  15869.959  0.166095   65843.602
  15879.964  0.164698   65421.602
  15889.980  0.164634   65023.602
  15900.011  0.163567   64684.602
  15910.055  0.16291   64372.602
  15919.941  0.164034   64184.602
  15930.011  0.164785   63928.602
  15939.925  0.165154   63685.602
  15950.020  0.160098   62946.602
  15959.959  0.164506   63006.602
  15970.079   0.1637659   62553.602
  15980.045  0.163168   62246.602
  15990.021  0.16052   61802.602
  16000.012  0.162764   61649.602
  16010.014   0.1626342   61348.602
  16020.030   0.1602267   60846.602
  16030.059  0.161506   60556.602
  16039.929  0.160963   60159.602
  16049.982  0.161596   59848.602
  16060.049  0.162069   59620.602
  16069.959  0.162453   59217.602
  16080.051  0.164635   58863.602
  16081.248  0.164561   58762.602
  16082.448  0.165925   58828.602
  16083.646  0.165267   58715.602
  16084.846  0.165736   58621.602
  16086.215   0.1656407   58508.602
  16087.415  0.167828   58590.602
  16088.613  0.169751   58576.602
  16089.813  0.170082   58478.602
  16091.013  0.172518   58402.602
  16092.214  0.174163   58297.602
  16093.586  0.176685   58165.602
  16094.785  0.181014   58228.602
  16095.986  0.186976   58147.602
  16097.187    0.195563   58083.602
  16098.387  0.209565   58024.602
  16099.588  0.229095   57965.602
  16100.962  0.261377   57894.602
  16102.162  0.29817   57722.602
  16103.364  0.340094   57691.602
  16104.565  0.389612   57689.602
  16105.769  0.436145   57560.602
  16106.970  0.486999   57614.602
  16108.173  0.523616   57472.602
  16109.547  0.545719   57412.602
  16110.750  0.548781   57434.602
  16111.952  0.538938   57276.602
  16113.155   0.5227073   57128.602
  16114.359  0.506423   57239.602
  16115.563  0.487699   57112.602
  16116.767  0.47599   57120.602
  16118.143  0.466334   57027.602
  16119.345  0.459937   56958.602
  16120.551  0.453386   56915.602
  16121.754  0.447089   56761.602
  16122.960  0.442764   56720.602
  16124.163  0.437648   56728.602
  16125.369  0.431968   56533.602
  16126.746  0.427568   56524.602
  16127.951  0.424929   56424.602
  16129.157   0.4225348   56257.602
  16130.362  0.423358   56314.602
  16131.568  0.424681   56147.602
  16132.774  0.427029   55928.602
  16133.980  0.430372   55860.602
  16135.188  0.433133   55780.602
  16136.568  0.437441   55756.602
  16137.773   0.4419488   55731.602
  16138.981  0.446908   55883.602
  16140.188  0.450642   55899.602
  16141.396   0.4559392   55781.602
  16142.603  0.459259   55661.602
  16143.812  0.463945   55563.602
  16145.020   0.4666047   55534.602
  16146.400  0.468223   55370.602
  16147.607  0.468658   55327.602
  16148.817  0.468189   55226.602
  16150.024  0.46735    110646.2
  16151.062  0.465569   110602.19
  16152.271   0.4623516   110326.16
  16153.481  0.459394   110171.09
  16154.517  0.456717   110050.01
  16155.727  0.453412   109736.91
  16156.937   0.4519837   109554.77
  16158.146   0.4517454   109559.62
  16159.528  0.449113   109222.45
  16160.740  0.448117   109080.24
  16162.122  0.446684   108839.02
  16163.334  0.444901   108628.77
  16164.718  0.443473    108474.5
  16166.102  0.442585    108402.2
  16167.486  0.440631   108285.88
  16168.871  0.44002   108299.54
  16170.257  0.437425   108174.18
  16171.642  0.435525   108123.79
  16173.200  0.431978   107958.37
  16174.586  0.430014   107955.94
  16176.146   0.4288528   108056.48
  16177.705   0.4275132   108190.99
  16179.265  0.428069   108355.48
  16180.825  0.42948   108529.95
  16182.386  0.431532    108954.4
  16183.946  0.434448   109443.82
  16185.680  0.437416   109953.21
  16187.242  0.439063   110453.59
  16188.977  0.441706   111037.94
  16190.539  0.442613   111303.27
  16192.275   0.4443115   111549.57
  16194.011  0.445107   111743.85
  16195.748  0.445268    111825.1
  16197.485  0.444681   111866.34
  16199.396  0.443592   111952.55
  16201.134  0.443307   112201.73
  16203.046  0.44202   112373.89
  16204.785  0.440636   112396.03
  16206.698  0.439129   112663.14
  16208.612  0.437072   112825.23
  16210.525  0.435476    113211.3
  16212.439  0.433528   113395.34
  16214.355  0.431933   113695.36
  16216.271  0.429766   113781.36
  16218.360   0.4283169   113983.33
  16220.276  0.427153   114370.28
  16222.367  0.425783    114544.2
  16224.459  0.424862   114885.11
  16226.551  0.42413   115026.98
  16228.644  0.424389   115210.84
  16230.738  0.424776   115629.67
  16232.832  0.424883   115950.48
  16234.925  0.425261   116347.26
  16237.194  0.425704   116666.02
  16239.290  0.425673   116964.76
  16241.561  0.425437   117294.47
  16243.832  0.424928   117662.16
  16246.104  0.424857   118065.82
  16248.377  0.425162   118414.46
  16250.650  0.424698   118730.08
  16252.925  0.424225   119178.67
  16255.199  0.423459   119480.24
  16257.649  0.423601   119845.79
  16259.925  0.423632   120303.31
  16262.377   0.4239996   120680.81
  16264.830  0.423994   121042.29
  16267.282   0.4242537   121475.74
  16269.737   0.4244968   121982.17
  16272.192  0.424171   122281.58
  16274.646  0.423043   122573.96
  16277.279  0.42187   123096.32
  16279.736  0.420969   123440.66
  16282.369  0.420794   123873.96
  16284.828  0.420334   124375.25
  16287.463  0.419827   124687.52
  16290.099  0.419436   125293.76
  16292.735  0.418912   125874.97
  16295.373  0.417828   126093.16
  16298.013  0.41652   126681.34
  16300.827  0.415867   127208.48
  16303.468  0.414684    127603.6
  16306.286   0.4142314    128213.7
  16309.104  0.413608   128696.77
  16311.748  0.41266   129097.82
  16314.567  0.412111   129730.85
  16317.388  0.412095   130166.85
  16320.211  0.412144   130852.84
  16323.212  0.411846    131192.8
  16326.035  0.412267   131634.72
  16328.861  0.412504   132209.64
  16331.863   0.4123883   132686.52
  16334.867  0.412047   133071.37
  16337.696  0.411855   133631.22
  16340.703  0.411364   134291.03
  16343.710  0.411113   134962.83
  16346.719  0.410296   135468.59
  16349.905  0.409405   135880.34
  16352.918  0.408877   136267.06
  16355.929  0.407755   136836.75
  16359.119  0.40682   137346.42
  16362.312  0.406093   137921.08
  16365.326  0.404971    138468.7
  16368.521  0.403956    138953.3
  16371.717  0.403155   139512.87
  16374.914   0.4026842   140219.44
  16378.111  0.402081   140629.97
  16381.488  0.401534   141152.47
  16384.689   0.4015195   141683.95
  16388.068  0.400993   142290.42
  16391.271  0.400695   142919.86
  16394.656  0.400231   143365.27
  16398.039  0.399972   143842.66
  16401.424  0.399549   144490.03
  16404.813  0.398704   145142.36
  16408.199   0.3980833   145638.69
  16411.590  0.397631   146393.98
  16415.160   0.3970198   146753.25
  16418.553   0.3963339    147426.5
  16422.127  0.395633   147968.72
  16425.521  0.394909   148528.92
  16429.098  0.39415   149099.09
  16432.676  0.39372   149707.25
  16436.254  0.393244   150112.37
  16439.834   0.3922423   150834.48
  16443.416  0.391823   151468.58
  16447.180  0.391205   151996.62
  16450.766  0.390875   152527.67
  16454.354  0.390382   153148.67
  16458.121  0.389815   153664.66
  16461.891  0.389086   154225.62
  16465.662  0.388552   154665.56
  16469.438  0.3879   155086.48
  16473.211  0.387335   155838.37
  16476.988  0.386641   156354.25
  16480.768   0.3860521   156846.09
  16484.549  0.385312   157486.92
  16488.510  0.384553   157929.72
  16492.295  0.38382   158550.48
  16496.260  0.382951   159088.25
  16500.229  0.382344   159512.97
  16504.199  0.381539   160038.67
  16508.172  0.380841   160649.36
  16512.145  0.38002   161378.02
  16516.121  0.37939   161845.64
  16520.100  0.378696   161963.25
  16524.080  0.37803   162738.84
  16528.242   0.3773198   163475.41
  16532.227  0.376816   163926.94
  16536.393   0.3761212   164416.45
  16540.563  0.375565   164700.95
  16544.734  0.374987   165557.42
  16548.906  0.374293   165974.86
  16553.084  0.373664   166777.28
  16557.262  0.37301   167289.69
  16561.441  0.372321   167675.06
  16565.807  0.371071   168236.41
  16569.990  0.370547   168915.73
  16574.357  0.369695   169116.03
  16578.549  0.368762   169993.31
  16582.922  0.367813   170500.56
  16587.297  0.366957    170567.8
  16591.674  0.366344   171129.02
  16596.055  0.365709   171762.19
  16600.438  0.364825   172138.36
  16604.822  0.364177   172430.48
  16609.393  0.363274   173119.61
  16613.783  0.362509   173539.69
  16618.357  0.361649   174131.77
  16622.754  0.360816    174586.8
  16627.332  0.359926   175192.83
  16631.916   0.3593739   175471.81
  16636.502  0.358358    176402.8
  16641.090  0.357684   176415.73
  16645.682  0.356698   177250.66
  16650.273  0.356079   177236.56
  16655.053  0.355282   177600.44
  16659.652  0.354529    178028.3
  16664.254  0.353465   178451.12
  16669.043  0.352709   178308.94
  16673.832  0.352192   178776.72
  16678.625  0.351235   179581.47
  16683.420  0.350492    179588.2
  16688.221  0.349614   180096.92
  16693.023  0.348429   180646.61
  16697.828  0.3477   180759.28
  16702.635  0.346686   181235.92
  16707.445  0.345716   182048.53
  16712.445  0.345176   181924.12
  16717.260  0.344062    182263.7
  16722.264  0.343039   182671.25
  16727.271   0.3423961   182483.77
  16732.281  0.341504   183005.27
  16737.295  0.34061   183270.75
  16742.313  0.339421    183623.2
  16747.332  0.338842   183769.62
  16752.355  0.337658   184120.03
  16757.381  0.336991   184263.41
  16762.596  0.335854   184575.77
  16767.629  0.335009   184730.11
  16772.852  0.33429   184552.41
  16777.889  0.333019    184278.7
  16783.117   0.3326482   184463.97
  16788.348  0.331781    185619.2
  16793.584  0.330837   185521.42
  16798.822  0.32985   185539.61
  16804.063   0.3288348   186035.78
  16809.309  0.328078   186167.92
  16814.744  0.327056   186382.05
  16819.996  0.325965   186502.14
  16825.438   0.3252129   186941.22
  16830.697  0.324568   186814.27
  16836.146  0.32348    187269.3
  16841.600  0.322462    187424.3
  16847.059  0.321576   187035.28
  16852.330  0.32052   187141.23
  16857.982  0.319395   187663.17
  16863.451  0.318344   187473.08
  16868.922  0.317688   187161.97
  16874.396  0.316884   187866.83
  16880.064  0.315821   187724.66
  16885.547  0.314519   187469.47
  16891.223  0.313596   187820.27
  16896.711  0.312976   187850.03
  16902.396  0.312135   187747.78
  16908.082   0.3115182    187399.5
  16913.773  0.310344   187584.19
  16919.469  0.309459   187804.86
  16925.166  0.308368   187731.52
  16930.869  0.307268   187867.14
  16936.576  0.306414   187674.73
  16942.287  0.305295   187438.31
  16948.191  0.304467   187546.87
  16953.910  0.303591   187789.41
  16959.822  0.302865   187122.91
  16965.740  0.301604   187843.39
  16971.471  0.301017   187638.86
  16977.396  0.300011    187388.3
  16983.326  0.299115    186953.7
  16989.260  0.298061   186719.09
  16995.197  0.296939   186547.45
  17001.332  0.296092    186499.8