File: data/Sr/Sr_slawsonite_rt_02.xdi
# XDI/1.0  SSRL EXAFS Data Collector 1.1 AD.RGN
# Column.1: energy eV
# Column.2: mutrans
# Column.3: i0
# Beamline.name: SSRL 4-3 (?)
# Element.edge: K
# Element.symbol: Sr
# Mono.d_spacing: 1.92009
# Mono.name: Si(220)
# Mono.notes: (?) unfocussed, detuned 75%, clockwise at E=16300eV
# Sample.formula: SrAl2(SiO4)2
# Sample.name: slawsonite
# Sample.prep: powder mixed with B2O3
# Sample.reference: none
# Sample.temperature: room temperature
# Scan.start_time: 1997-03-18 19:29:57
# ///
#    Note: mono d_spacing is nominal!
#--------------------------------------------
# energy     mutrans      i0
  15700.043   0.2058071   66648.602
  15709.991  0.204275   66151.602
  15719.954  0.200385   65585.602
  15729.931  0.200849   65360.602
  15739.919  0.205218   63872.602
  15749.921  0.199561   64956.602
  15759.935  0.19561   64335.602
  15769.963  0.195404   64047.602
  15780.002    0.194245   63668.602
  15790.057  0.193741   63307.602
  15799.958  0.193758   63058.602
  15810.037  0.193501   62804.602
  15819.965  0.191736   62394.602
  15830.071  0.190628   62020.602
  15840.023   0.1861454   61427.602
  15849.989  0.189761   61444.602
  15859.968  0.190377   61206.602
  15869.959    0.186047   60626.602
  15879.964  0.183182   60037.602
  15889.980  0.185667   59901.602
  15900.011  0.186905   59669.602
  15910.055  0.182556   59098.602
  15919.941  0.185343   59086.602
  15930.011  0.184416   58709.602
  15939.925  0.181697   58221.602
  15950.020  0.181298   57952.602
  15959.959  0.180583   57556.602
  15970.079  0.179797   57178.602
  15980.045  0.178355   56755.602
  15990.021  0.177849   56516.602
  16000.012  0.175384   55986.602
  16010.014  0.175246   55734.602
  16020.030  0.174671   55334.602
  16030.059  0.174257   54998.602
  16039.929  0.173636   54676.602
  16049.982  0.172647   54269.602
  16060.049  0.172486   53981.602
  16069.959  0.172004   53550.602
  16080.051  0.17348   53145.602
  16081.248  0.173989   53084.602
  16082.448  0.175039   53160.602
  16083.646  0.174382   53037.602
  16084.846  0.175462   52993.602
  16086.215  0.176457   52973.602
  16087.415   0.1768816   52863.602
  16088.613  0.178003   52859.602
  16089.813  0.179835   52762.602
  16091.013  0.180302   52716.602
  16092.214  0.182474   52671.602
  16093.586  0.185192   52623.602
  16094.785  0.189176   52618.602
  16095.986  0.194265   52578.602
  16097.187  0.200967   52467.602
  16098.387  0.214312   52478.602
  16099.588  0.233242   52448.602
  16100.962  0.264492   52362.602
  16102.162  0.301274   52237.602
  16103.364  0.341633   52172.602
  16104.565  0.391254   52179.602
  16105.769  0.439197   52312.602
  16106.970   0.4899868   52106.602
  16108.173   0.5286888   52082.602
  16109.547  0.554671   52032.602
  16110.750  0.558651   51993.602
  16111.952  0.550958   51971.602
  16113.155  0.535046   51907.602
  16114.359  0.517385   51864.602
  16115.563  0.498283   51806.602
  16116.767  0.485672   51737.602
  16118.143  0.474958   51705.602
  16119.345  0.467943   51631.602
  16120.551  0.461114   51527.602
  16121.754  0.455836   51516.602
  16122.960  0.451433   51486.602
  16124.163  0.445138   51358.602
  16125.369  0.440855   51412.602
  16126.746  0.435631   51359.602
  16127.951  0.431454   51205.602
  16129.157  0.430262   51144.602
  16130.362  0.429577   51069.602
  16131.568  0.431384   51069.602
  16132.774  0.433404   50799.602
  16133.980  0.436596   50737.602
  16135.188  0.440097   50755.602
  16136.568   0.4439804   50714.602
  16137.773  0.448433   50754.602
  16138.981  0.452991   50709.602
  16140.188   0.4572131   50873.602
  16141.396  0.462148   50777.602
  16142.603  0.466498   50764.602
  16143.812  0.470618   50655.602
  16145.020  0.474591   50667.602
  16146.400  0.476363   50533.602
  16147.607  0.476683   50517.602
  16148.817  0.475864   50474.602
  16150.024    0.473851    100844.2
  16151.062  0.470952   100749.19
  16152.271  0.468936   100610.16
  16153.481  0.465638   100465.09
  16154.517  0.463294   100460.01
  16155.727  0.460862   100302.91
  16156.937  0.457902   100097.77
  16158.146  0.456476   100025.63
  16159.528  0.454885   99872.445
  16160.740  0.453352   99695.242
  16162.122  0.451853   99432.016
  16163.334  0.450741   99411.773
  16164.718  0.449719     99207.5
  16166.102  0.448176   99174.203
  16167.486  0.446739   99191.883
  16168.871  0.444149   99021.539
  16170.257  0.442431    99023.18
  16171.642  0.439746   98987.789
  16173.200  0.436671   98868.375
  16174.586  0.434427   98961.938
  16176.146  0.432839   99133.477
  16177.705  0.43217   99322.992
  16179.265  0.432194   99385.484
  16180.825  0.433529   99835.953
  16182.386  0.435011    100084.4
  16183.946  0.437425   100573.82
  16185.680  0.44025   101212.21
  16187.242  0.442904   101569.59
  16188.977   0.4449154   101921.94
  16190.539  0.446842   102296.27
  16192.275  0.448419   102480.57
  16194.011  0.449135   102692.85
  16195.748  0.44902    102887.1
  16197.485  0.448533   102886.34
  16199.396  0.447781   103119.55
  16201.134  0.447104   103289.73
  16203.046   0.4457074   103456.89
  16204.785  0.444382   103679.03
  16206.698  0.44288   104022.14
  16208.612  0.440324   104128.23
  16210.525  0.43917    104306.3
  16212.439  0.436891   104578.34
  16214.355  0.435265   104878.36
  16216.271  0.433146   105040.36
  16218.360  0.431662   105357.33
  16220.276  0.429807   105569.28
  16222.367  0.429036    105847.2
  16224.459  0.428302   106228.11
  16226.551  0.427314   106470.98
  16228.644  0.427735   106734.84
  16230.738  0.427731   107060.67
  16232.832  0.427927   107432.48
  16234.925  0.428021   107770.26
  16237.194  0.428188   107981.02
  16239.290   0.4280334   108328.76
  16241.561  0.428004   108734.47
  16243.832  0.42791   109030.16
  16246.104  0.42747   109327.82
  16248.377  0.426982   109834.46
  16250.650  0.427123   110117.08
  16252.925  0.426559   110522.67
  16255.199  0.426246   110914.24
  16257.649  0.425813   111354.79
  16259.925  0.425675   111647.31
  16262.377  0.425819   112200.81
  16264.830  0.426245   112400.29
  16267.282  0.42625   112881.74
  16269.737  0.425944   113248.17
  16272.192  0.425624   113724.58
  16274.646  0.424929   114013.96
  16277.279  0.424016   114467.32
  16279.736  0.423002   114880.66
  16282.369  0.422411   115446.96
  16284.828  0.421788   115722.25
  16287.463  0.42197   116247.52
  16290.099  0.421193   116622.76
  16292.735  0.420755   117225.97
  16295.373  0.419464   117670.16
  16298.013  0.41856   117970.34
  16300.827  0.417562   118416.48
  16303.468  0.416765    118935.6
  16306.286  0.416018    119224.7
  16309.104  0.415299   119790.77
  16311.748  0.414302   120258.82
  16314.567  0.413795   120887.85
  16317.388  0.413243   121398.85
  16320.211  0.413141   121815.84
  16323.212  0.413279   122166.79
  16326.035  0.413395   122735.73
  16328.861   0.4135999   123291.63
  16331.863  0.413673   123849.52
  16334.867  0.413547   124299.38
  16337.696  0.413098   124769.22
  16340.703  0.412768   125317.03
  16343.710  0.412066   125797.83
  16346.719  0.411187   126430.59
  16349.905  0.410568   126763.34
  16352.918  0.409924   127347.05
  16355.929   0.4088777   127992.75
  16359.119  0.407918   128359.42
  16362.312  0.406877   128988.08
  16365.326  0.405601    129413.7
  16368.521  0.404759    129981.3
  16371.717  0.403853   130612.88
  16374.914  0.403465   131125.44
  16378.111  0.403013   131652.97
  16381.488  0.402333   132275.47
  16384.689  0.401878   132633.95
  16388.068  0.40165   133243.42
  16391.271  0.401089   133813.86
  16394.656  0.400789   134381.27
  16398.039  0.400166   134928.66
  16401.424  0.399857   135552.03
  16404.813   0.3993699   136201.36
  16408.199  0.398591   136711.69
  16411.590  0.397908   137275.98
  16415.160  0.397328   137947.25
  16418.553  0.396598    138421.5
  16422.127   0.3960944   138826.72
  16425.521  0.395652   139444.92
  16429.098   0.3942924   139980.09
  16432.676  0.394027   140449.25
  16436.254  0.393392   141005.37
  16439.834  0.39274   141629.48
  16443.416  0.392084   142269.58
  16447.180  0.391625   142793.62
  16450.766  0.390913   143314.67
  16454.354  0.390726   144022.67
  16458.121  0.389909   144457.66
  16461.891  0.389161   145121.62
  16465.662  0.388696   145536.56
  16469.438  0.388214   146349.48
  16473.211  0.387573   146880.37
  16476.988  0.386762   147550.25
  16480.768  0.385994   148009.09
  16484.549   0.3852689   148493.92
  16488.510   0.3845418   148689.72
  16492.295  0.383664   149323.48
  16496.260  0.382731   149921.25
  16500.229  0.382145   150443.97
  16504.199  0.381383   150993.67
  16508.172  0.38065   151476.36
  16512.145   0.3797982   152449.02
  16516.121  0.379189   152666.64
  16520.100  0.37854   153022.25
  16524.080  0.378046   153876.84
  16528.242  0.377653   154327.41
  16532.227  0.376943   154920.94
  16536.393  0.376409   155198.45
  16540.563  0.375551   155826.95
  16544.734  0.374784   156503.42
  16548.906  0.374106   157013.86
  16553.084  0.373492   157494.28
  16557.262  0.372739   158005.69
  16561.441  0.371812   158403.06
  16565.807  0.371088   158898.41
  16569.990  0.370262   159318.73
  16574.357  0.369266   159918.03
  16578.549  0.368521   160521.31
  16582.922  0.367818   160773.56
  16587.297  0.366951    161496.8
  16591.674  0.366212   161478.02
  16596.055  0.365397   162020.19
  16600.438   0.3647861   162420.36
  16604.822   0.3638791   162905.48
  16609.393  0.363056   163266.61
  16613.783  0.362345   163988.69
  16618.357  0.361347   164211.77
  16622.754  0.360552    165059.8
  16627.332  0.360226   165199.83
  16631.916  0.359298   165778.81
  16636.502  0.358617    166082.8
  16641.090  0.357781   166557.73
  16645.682  0.356856   166956.66
  16650.273   0.3562868   167341.56
  16655.053  0.35525   167901.44
  16659.652  0.354305    168016.3
  16664.254  0.353444   168562.12
  16669.043  0.352693   168635.94
  16673.832   0.3517565   169377.72
  16678.625  0.351134   169665.47
  16683.420  0.350153    170387.2
  16688.221  0.349286   171079.92
  16693.023   0.3483963   171465.61
  16697.828  0.347538   171513.28
  16702.635   0.3466642   171813.92
  16707.445  0.346459   172261.53
  16712.445  0.345425   172317.12
  16717.260  0.344113    172788.7
  16722.264   0.3433646   172974.25
  16727.271  0.342525   173233.77
  16732.281  0.341768   173622.27
  16737.295  0.341165   173551.75
  16742.313  0.33981    174203.2
  16747.332  0.338994   174559.62
  16752.355  0.339598   175165.03
  16757.381  0.338802   175247.41
  16762.596   0.3374321   175535.77
  16767.629   0.3354368   175622.11
  16772.852  0.334555   175802.41
  16777.889  0.333643    175080.7
  16783.117  0.333083   175961.97
  16788.348  0.331956    176991.2
  16793.584   0.3308056   176972.42
  16798.822  0.329747   177065.61
  16804.063  0.328915   177695.78
  16809.309  0.327984   177343.92
  16814.744  0.326976   177507.05
  16819.996  0.325596   177645.14
  16825.438  0.324873   178119.22
  16830.697  0.324698   177979.27
  16836.146  0.323659    178194.3
  16841.600  0.322662    178235.3
  16847.059  0.321835   178146.28
  16852.330   0.3210226   178003.23
  16857.982  0.319989   178450.17
  16863.451  0.319042   178547.08
  16868.922  0.317886   178605.97
  16874.396  0.316959   178971.83
  16880.064   0.3160382   178613.66
  16885.547  0.315026   179345.47
  16891.223  0.314239   179271.27
  16896.711  0.313137   179068.03
  16902.396  0.312371   179042.78
  16908.082  0.311213    179281.5
  16913.773  0.310497   178776.19
  16919.469   0.3094854   178819.86
  16925.166  0.308511   179501.52
  16930.869  0.307376   179006.14
  16936.576  0.305742   179447.73
  16942.287  0.30495   179599.31
  16948.191  0.304335   179075.87
  16953.910  0.302949   179754.41
  16959.822  0.302199   178817.91
  16965.740  0.301234   179409.39
  16971.471  0.300431   179239.86
  16977.396   0.2992159    179381.3
  16983.326  0.298175    179015.7
  16989.260  0.297293   178812.09
  16995.197  0.296278   178898.45
  17001.332  0.295486    178881.8