File: data/Sr/SrCO3_12K_03.xdi
# XDI/1.0 EXAFS Data Collector 1.1 AD.RGN
# Column.1: energy eV
# Column.2: mutrans
# Column.3: i0
# Beamline.name: SSRL 4-3 (?)
# Detector.I0: N2 15cm
# Detector.I1: Ar 30cm
# Element.edge: K
# Element.symbol: Sr
# Mono.d_spacing: 1.92009
# Mono.name: Si(220)
# Mono.notes: (?) unfocussed, detuned 50%, clockwise at E=16800eV
# Sample.formula: SrCO3
# Sample.name: strontianite
# Sample.prep: powder mixed with B2O3 (1:10)
# Sample.reference: none
# Sample.temperature: 12K
# Scan.start_time: 1997-03-17 13:38:14
# ///
#    Note: mono d_spacing is nominal!
#-------------
#   energy   mutrans      i0
  15700.043 -0.0311336   51386.199
  15709.991 -0.0334601   50843.199
  15719.954 -0.036099   50410.199
  15729.931 -0.0381094   49839.199
  15739.919 -0.0376785   48623.199
  15749.921 -0.0381042   49331.199
  15759.935 -0.0407579   48774.199
  15769.963 -0.0404486   48452.199
  15780.002 -0.0413727   47987.199
  15790.057 -0.0451657   47531.199
  15799.958 -0.0435725   47153.199
  15810.037 -0.0458647   46641.199
  15819.965 -0.0440847   46349.199
  15830.071 -0.0447707   45907.199
  15840.023 -0.04723987   45624.199
  15849.989 -0.04725   45242.199
  15859.968 -0.0484093   44798.199
  15869.959 -0.0489925   44431.199
  15879.964 -0.0509776   44073.199
  15889.980 -0.0512244   43703.199
  15900.011 -0.0516439   43320.199
  15910.055 -0.05289   42954.199
  15919.941 -0.0536763   42580.199
  15930.011 -0.05431007   42213.199
  15939.925 -0.055095   41807.199
  15950.020 -0.0562092   41526.199
  15959.959 -0.057123   41098.199
  15970.079 -0.0580713   40742.199
  15980.045 -0.0593379   40403.199
  15990.021 -0.0597389   39945.199
  16000.012 -0.0605072   39663.199
  16010.014 -0.0614474   39148.199
  16020.030 -0.0621531   38908.199
  16030.059 -0.0627237   38543.199
  16039.929 -0.0633383   38203.199
  16049.982 -0.0634472   37830.199
  16060.049 -0.0632903   37437.199
  16069.959 -0.062444   37076.199
  16080.051 -0.0595678   36821.199
  16089.984 -0.0494834   36449.199
  16099.931  0.08130978   35919.199
  16110.063  0.575148   35612.199
  16120.035  0.334624   35173.199
  16121.238  0.327938   35430.199
  16122.443  0.322344   35358.199
  16123.819  0.318016   35252.199
  16125.024  0.316127   35228.199
  16126.229  0.314225   35146.199
  16127.435  0.313982   35017.199
  16128.813  0.317604   35074.199
  16130.019  0.323046   35043.199
  16131.225  0.32873   34801.199
  16132.431   0.3361121   34646.199
  16133.809    0.343764   34647.199
  16135.016  0.349501   34696.199
  16136.221  0.356886   34816.199
  16137.429  0.364269   34789.199
  16138.808  0.373779   34668.199
  16140.016  0.38328   34619.199
  16141.223  0.390567   34550.199
  16142.431  0.399493   34572.199
  16143.812  0.407711   34504.199
  16145.020  0.412365   34452.199
  16146.228   0.4158109   34530.199
  16147.436  0.416074   34342.199
  16148.817  0.415388   34323.199
  16150.024   0.4125629   34202.199
  16151.234  0.409478   34187.199
  16152.443  0.404935   34110.199
  16153.826  0.3986   33981.199
  16155.034  0.392931   33980.199
  16155.727   0.3895031   33877.195
  16156.418  0.385477   33932.176
  16157.108  0.382156   34029.145
  16157.800  0.377182   33914.105
  16158.493  0.373451   33914.051
  16159.356  0.368397   33885.984
  16160.047  0.365084   33852.906
  16160.913  0.361279   33785.816
  16161.777  0.357593   33742.711
  16162.642  0.355001   33827.598
  16163.508  0.351026   33667.473
  16164.372  0.348732   33754.332
  16165.237  0.3454   33616.184
  16166.275  0.342924    33658.02
  16167.140  0.340779   33690.844
  16168.179  0.338435   33824.656
  16169.217  0.336321   33867.461
  16170.084  0.334713    33699.25
  16171.123  0.333958   33662.027
  16172.160  0.334207   33648.789
  16173.373  0.33525   33575.543
  16174.412  0.336675   33677.285
  16175.452   0.3387442   33801.012
  16176.665  0.341927    33903.73
  16177.705  0.344119   33864.434
  16178.917  0.347315   33969.129
  16180.132  0.350687   34156.809
  16181.345  0.353383   34474.477
  16182.559  0.354744   34449.133
  16183.772  0.356467   34641.777
  16185.160  0.357908    34922.41
  16186.374  0.358102   35094.031
  16187.762  0.358398   35230.641
  16188.977  0.358316   35265.238
  16190.365  0.358845    35405.82
  16191.755   0.3594772   35471.395
  16193.143  0.360223   35596.953
  16194.532  0.361088     35867.5
  16195.922   0.3607334   35786.039
  16197.485  0.361302   35892.563
  16198.874  0.361718   35962.074
  16200.438  0.362577   36093.574
  16202.004  0.363174   36092.063
  16203.394  0.363595   36216.539
  16204.958  0.363069   36321.004
  16206.524  0.362103   36383.453
  16208.090  0.36086   36462.895
  16209.829  0.35922    36722.32
  16211.396  0.356224   36720.738
  16212.961  0.353073   36824.141
  16214.703    0.350802   37109.531
  16216.444  0.346975    37224.91
  16218.186  0.343293   37375.281
  16219.927  0.339269   37394.637
  16221.670  0.335811   37439.977
  16223.413   0.3333742   37503.309
  16225.156  0.331761   37719.629
  16226.900  0.33134   37829.938
  16228.818  0.330983    38005.23
  16230.563  0.330948   38284.516
  16232.480   0.3303616   38301.785
  16234.401  0.330783   38565.047
  16236.321  0.331208   38657.293
  16238.242  0.332708   38940.527
  16240.163  0.333081    38934.75
  16242.084  0.334209   39206.961
  16244.181  0.33513    39291.16
  16246.104  0.336369   39445.348
  16248.202  0.337936    39517.52
  16250.300  0.339858   39745.684
  16252.225  0.341539   39784.836
  16254.323  0.342893   40158.973
  16256.423   0.3425184   40185.102
  16258.698   0.3413128   40390.215
  16260.801  0.338926   40590.316
  16262.902  0.33647   40758.406
  16265.180  0.334255   40911.484
  16267.282  0.333867   41208.551
  16269.562  0.33383   41349.605
  16271.841  0.334628   41519.648
  16274.121   0.3353558    41615.68
  16276.400  0.336517   41886.695
  16278.682  0.337061   41976.703
  16280.965   0.3376643   42241.695
  16283.422  0.337236    42419.68
  16285.705  0.336223   42376.648
  16288.165  0.335246   42933.605
  16290.450  0.333643   43188.551
  16292.911  0.33076   43115.488
  16295.373   0.3284545    43310.41
  16297.836  0.326451   43395.316
  16300.300  0.325465   43791.215
  16302.764  0.324255   43901.102
  16305.404  0.323103   44044.977
  16307.870  0.321995   44391.836
  16310.514  0.320506   44552.688
  16312.980  0.31948   44751.523
  16315.624  0.319384   44851.348
  16318.271  0.320043    45314.16
  16320.918   0.3207426   45354.965
  16323.563  0.322739   45708.754
  16326.212  0.324323   45816.531
  16329.038  0.325952   45990.293
  16331.687  0.327613   46227.047
  16334.515  0.328288   46340.789
  16337.165  0.328327    46626.52
  16339.995  0.327711   46959.234
  16342.827  0.326175   47053.941
  16345.657   0.3246943   47290.633
  16348.490  0.322732   47495.313
  16351.322  0.321008    47770.98
  16354.333  0.319247   47922.641
  16357.169  0.317829   48142.285
  16360.007  0.316408   48308.918
  16363.021  0.315144   48445.535
  16366.036   0.3147769   48843.145
  16369.054  0.313604   48784.742
  16372.071   0.3136866   49191.328
  16375.092  0.314141   49354.898
  16378.111  0.314642   49619.461
  16381.133  0.316213   49998.008
  16384.156  0.316886   50093.543
  16387.357  0.316818   50307.066
  16390.383  0.315771   50631.578
  16393.586  0.314062   50775.082
  16396.791  0.312665   50925.566
  16399.998  0.311626   51117.043
  16403.207  0.310679   51184.508
  16406.416  0.309134   51479.961
  16409.627  0.306695   51657.398
  16412.840  0.306223   51723.828
  16416.230  0.306656   52133.242
  16419.445   0.3074331   52215.648
  16422.840  0.308134   52207.039
  16426.057  0.308769   52588.418
  16429.455  0.309055   52981.785
  16432.854  0.308376   52982.141
  16436.254  0.308049   53217.484
  16439.656  0.306985   53233.816
  16443.236  0.306466   53590.137
  16446.643  0.305863   53937.445
  16450.049  0.304662   53946.738
  16453.635  0.303286   54220.023
  16457.223  0.302019   54521.293
  16460.635  0.301301   54708.551
  16464.227  0.300919   55205.801
  16467.818  0.299943   55247.035
  16471.412  0.299392   55395.258
  16475.010  0.29891   55792.469
  16478.787  0.297795   55780.668
  16482.387  0.296674   56007.855
  16485.988  0.295697   56127.027
  16489.771  0.295502   56381.191
  16493.557  0.295622   56470.344
  16497.162  0.295982    56953.48
  16500.949  0.29564   56884.609
  16504.740   0.2953522   57244.723
  16508.533  0.294683   57324.824
  16512.326  0.293854   57659.914
  16516.301  0.2933   57721.992
  16520.100  0.292653   57800.059
  16523.898  0.29151   58165.113
  16527.881  0.291471   58405.156
  16531.865  0.29104   58420.188
  16535.668  0.290708   58311.207
  16539.656  0.290303   59036.211
  16543.645  0.289522   58708.207
  16547.639  0.289328   58957.188
  16551.631   0.2883744   59293.156
  16555.809  0.287016   59347.117
  16559.807  0.286116   59577.063
  16563.986  0.285439   59497.996
  16567.988  0.284722   59740.918
  16572.176  0.284731   59747.828
  16576.361  0.284086   60059.727
  16580.371  0.283943   60284.609
  16584.561  0.283767   60564.484
  16588.756   0.2835798   60405.348
  16592.953  0.282881   60677.195
  16597.334  0.282304   60647.031
  16601.533  0.281247   60881.859
  16605.736  0.27993   61126.672
  16610.125   0.2788805   61273.473
  16614.514  0.278143   61485.262
  16618.725  0.277305   61598.039
  16623.119  0.276667   61494.805
  16627.516  0.275995   61758.559
  16631.916  0.276092   61865.301
  16636.318  0.276091   61937.027
  16640.725  0.275763   62209.746
  16645.313  0.275612   62369.449
  16649.723  0.274613   62447.145
  16654.318  0.273984   62635.824
  16658.732  0.273765   62651.492
  16663.332  0.273315   62864.148
  16667.936   0.2730312   62838.793
  16672.357  0.271393   63233.426
  16676.965  0.270099   62899.047
  16681.762    0.269374   63056.656
  16686.375  0.26857   63554.254
  16690.990  0.26829   63426.836
  16695.609   0.2673127    63362.41
  16700.416  0.266704   63622.969
  16705.041  0.266317    63718.52
  16709.852  0.266265   63740.055
  16714.666  0.265868   63996.578
  16719.299  0.265203   63980.094
  16724.119  0.264464   63983.594
  16728.941  0.263944   64027.082
  16733.768  0.263302   64256.555
  16738.596  0.262794    64532.02
  16743.613  0.261639   64275.473
  16748.449  0.260988   64648.914
  16753.285  0.259636    64618.34
  16758.313   0.2588288   64652.758
  16763.342  0.258341    64547.16
  16768.188  0.258307   64803.551
  16773.223  0.257737    65182.93
  16778.262  0.258585   64151.301
  16783.305  0.25601   64967.656
  16788.348  0.255877   64902.996
  16793.396  0.25482   65182.328
  16798.635  0.254033   65478.648
  16803.689  0.254005   65037.957
  16808.746  0.252957    65591.25
  16813.994   0.2529685   65050.535
  16819.059  0.251919   65206.805
  16824.313  0.251479   65342.066
  16829.570  0.250678   65511.313
  16834.832  0.250117   65630.547
  16840.096  0.249026   65560.773
  16845.363  0.248085   65614.984
  16850.635  0.247008    65825.18
  16855.910  0.246441   65715.367
  16861.377  0.245894   65710.539
  16866.658  0.244754   66076.703
  16872.131  0.244146   65962.859
  16877.420  0.24387   65884.992
  16882.900  0.243305   66103.125
  16888.385  0.24218   65946.234
  16893.684  0.24169   65733.336
  16899.174  0.240805    65993.43
  16904.670  0.239956   66096.508
  16910.170  0.239563   66112.578
  16915.861  0.238829   66447.633
  16921.367  0.239003   66423.672
  16926.877  0.238581   66103.703
  16932.580  0.238081   65905.719
  16938.098  0.236997   66172.727
  16943.809  0.236282   66150.719
  16949.525  0.235954   65818.703
  16955.055  0.234866   65931.672
  16960.777   0.2337867   66048.633
  16966.504  0.233754   65625.578
  16972.234  0.233115   65915.508
  16977.969  0.23211    65976.43
  16983.709  0.231696   66154.344
  16989.643  0.232447   65497.242
  16995.389  0.232029   65366.125
  17001.332  0.23019       65758