File: data/Sr/SrCO3_12K_01.xdi
# XDI/1.0 EXAFS Data Collector 1.1 AD.RGN
# Column.1: energy eV
# Column.2: mutrans
# Column.3: i0
# Beamline.name: SSRL 4-3 (?)
# Detector.I0: N2 15cm
# Detector.I1: Ar 30cm
# Element.edge: K
# Element.symbol: Sr
# Mono.d_spacing: 1.92009
# Mono.name: Si(220)
# Mono.notes: (?) unfocussed, detuned 50%, clockwise at E=16800eV
# Sample.formula: SrCO3
# Sample.name: strontianite
# Sample.prep: powder mixed with B2O3 (1:10)
# Sample.reference: none
# Sample.temperature: 12K
# Scan.start_time: 1997-03-17 12:43:45
# ///
#    Note: mono d_spacing is nominal!
#-------------
#   energy   mutrans      i0
  15700.043 -0.147355   37319.199
  15709.991 -0.149165   37087.199
  15719.954 -0.151136   36836.199
  15729.931 -0.152673   36600.199
  15739.919 -0.153605   35668.199
  15749.921 -0.155534   36302.199
  15759.935 -0.15805   36122.199
  15769.963 -0.159685   35855.199
  15780.002 -0.161162   35608.199
  15790.057 -0.162813   35466.199
  15799.958 -0.164618   35268.199
  15810.037 -0.166291   35038.199
  15819.965  -0.1675485   34780.199
  15830.071 -0.169636   34656.199
  15840.023  -0.1713578   34486.199
  15849.989 -0.172418   34234.199
  15859.968  -0.1737261   33985.199
  15869.959 -0.175501   33793.199
  15879.964  -0.1765138   33535.199
  15889.980 -0.178226   33404.199
  15900.011 -0.17996   33149.199
  15910.055 -0.180979   32955.199
  15919.941 -0.182438   32737.199
  15930.011  -0.1839373   32549.199
  15939.925 -0.185632   32356.199
  15950.020 -0.186726   32124.199
  15959.959 -0.188555   31951.199
  15970.079 -0.1896   31662.199
  15980.045  -0.1911594   31388.199
  15990.021 -0.192574   31276.199
  16000.012 -0.193405   31058.199
  16010.014 -0.194913   30882.199
  16020.030 -0.196213   30666.199
  16030.059 -0.197256   30437.199
  16039.929 -0.197612   30221.199
  16049.982  -0.1987634   30028.199
  16060.049 -0.199385   29816.199
  16069.959 -0.198181   29587.199
  16080.051 -0.195806   29363.199
  16089.984 -0.185452   29117.199
  16099.931 -0.0539521   28899.199
  16110.063   0.4496115   28722.199
  16120.035  0.207462   28507.199
  16121.238  0.199647   28478.199
  16122.443  0.193757   28420.199
  16123.819  0.189016   28381.199
  16125.024   0.1871395   28329.199
  16126.229  0.185941   28277.199
  16127.435   0.1853972   28252.199
  16128.813   0.1874637   28185.199
  16130.019  0.192551   28136.199
  16131.225  0.198104   28072.199
  16132.431  0.205021   27917.199
  16133.809  0.212893   27884.199
  16135.016  0.219371   27861.199
  16136.221  0.226698   27820.199
  16137.429  0.233662   27830.199
  16138.808  0.243072   27796.199
  16140.016   0.2528461   27778.199
  16141.223  0.26197   27774.199
  16142.431  0.271103   27739.199
  16143.812  0.278847   27689.199
  16145.020  0.283698   27655.199
  16146.228   0.2870271   27574.199
  16147.436  0.287813   27549.199
  16148.817  0.287267   27490.199
  16150.024  0.284165   27458.199
  16151.234  0.280835   27421.199
  16152.443  0.276198   27364.199
  16153.826  0.270092   27297.199
  16155.034  0.263375   27260.199
  16155.727  0.260429   27233.193
  16156.418   0.2559556   27207.176
  16157.108  0.251999   27187.146
  16157.800  0.247864   27126.104
  16158.493  0.243355   27060.049
  16159.356  0.238293   27053.982
  16160.047  0.234961   27016.904
  16160.913  0.230623   26977.814
  16161.777  0.226935   26939.713
  16162.642  0.223668   26926.598
  16163.508  0.220405   26878.471
  16164.372  0.217491   26858.332
  16165.237  0.214506   26831.182
  16166.275  0.210923    26799.02
  16167.140   0.2084183   26812.844
  16168.179  0.206114   26809.658
  16169.217  0.203801   26786.459
  16170.084  0.202569   26787.248
  16171.123  0.201294   26766.025
  16172.160  0.200813   26808.791
  16173.373  0.202107   26813.543
  16174.412  0.20307   26798.285
  16175.452   0.2049352   26801.014
  16176.665  0.208339    26838.73
  16177.705  0.21056   26896.436
  16178.917  0.213086   26945.129
  16180.132  0.215957   26954.809
  16181.345   0.2189205   27031.477
  16182.559   0.2204885   27129.135
  16183.772  0.221839   27254.779
  16185.160   0.2228687   27399.412
  16186.374  0.223763   27528.031
  16187.762  0.224306   27664.641
  16188.977  0.224431   27787.236
  16190.365  0.22506    27873.82
  16191.755  0.225236   27995.393
  16193.143  0.225966   28099.953
  16194.532  0.226126   28168.502
  16195.922  0.226399   28254.037
  16197.485  0.226654   28262.563
  16198.874  0.227344   28341.074
  16200.438  0.22818   28422.574
  16202.004  0.228042   28460.063
  16203.394  0.228582   28554.539
  16204.958  0.228334   28624.002
  16206.524  0.227894   28695.453
  16208.090  0.226   28783.895
  16209.829  0.223438   28826.322
  16211.396  0.221328   28973.736
  16212.961  0.219003   29099.141
  16214.703  0.214844   29166.533
  16216.444  0.210844   29302.912
  16218.186   0.2068138   29332.279
  16219.927  0.20278   29430.635
  16221.670  0.19944   29524.979
  16223.413  0.197183   29655.311
  16225.156  0.195467   29742.629
  16226.900  0.194194   29860.936
  16228.818  0.1937   29945.232
  16230.563  0.193002   30030.516
  16232.480  0.193155   30149.785
  16234.401  0.193434   30234.045
  16236.321  0.19394   30365.293
  16238.242  0.194704   30510.527
  16240.163  0.195497    30616.75
  16242.084  0.196173   30755.961
  16244.181  0.197259    30864.16
  16246.104  0.198655   30983.346
  16248.202  0.200036   31103.521
  16250.300  0.201999   31228.684
  16252.225  0.203913   31380.834
  16254.323  0.204663   31497.973
  16256.423  0.204367     31625.1
  16258.698  0.202297   31714.215
  16260.801  0.200038   31860.316
  16262.902  0.197412   32019.408
  16265.180  0.195516   32153.486
  16267.282  0.194124   32265.553
  16269.562  0.194484   32437.605
  16271.841  0.195166   32554.648
  16274.121  0.196143    32744.68
  16276.400  0.196409   32872.695
  16278.682  0.197082   33022.703
  16280.965  0.197704   33179.695
  16283.422  0.197217    33270.68
  16285.705  0.196317   33397.648
  16288.165  0.194877   33632.605
  16290.450  0.19237   33738.551
  16292.911  0.189925   33907.488
  16295.373  0.187514    34052.41
  16297.836  0.18509   34180.316
  16300.300   0.1848679   34390.215
  16302.764  0.182954   34539.102
  16305.404  0.180781   34627.977
  16307.870  0.179966   34844.836
  16310.514  0.178426   35034.688
  16312.980  0.177863   35198.523
  16315.624  0.17705   35310.348
  16318.271  0.177249    35466.16
  16320.918  0.177851   35633.965
  16323.563  0.179138   35797.754
  16326.212  0.18022   35936.531
  16329.038  0.182403   36067.293
  16331.687  0.184698   36277.047
  16334.515  0.184667   36402.789
  16337.165  0.184228    36572.52
  16339.995  0.183292   36780.234
  16342.827  0.181816   36921.941
  16345.657  0.180112   37090.633
  16348.490  0.177698   37239.313
  16351.322  0.176052    37410.98
  16354.333  0.174942   37611.641
  16357.169  0.172711   37762.285
  16360.007  0.17093   37946.918
  16363.021  0.169264   38041.535
  16366.036   0.1679236   38161.145
  16369.054  0.167166   38348.742
  16372.071  0.167388   38525.328
  16375.092  0.16755   38707.898
  16378.111  0.16836   38946.461
  16381.133  0.168565   39093.008
  16384.156  0.168925   39257.543
  16387.357  0.167609   39401.066
  16390.383  0.165973   39571.578
  16393.586    0.163926   39758.082
  16396.791  0.163042   39966.566
  16399.998  0.161214   40112.043
  16403.207  0.159938   40248.508
  16406.416    0.158629   40469.961
  16409.627    0.158419   40680.398
  16412.840  0.157645   40765.828
  16416.230   0.1578638   40971.242
  16419.445   0.1582617   41112.648
  16422.840  0.158259   41220.039
  16426.057  0.159202   41515.418
  16429.455    0.158875   41666.785
  16432.854   0.1582617   41827.141
  16436.254   0.1575382   41988.484
  16439.656   0.1566204   42192.816
  16443.236  0.155384   42348.137
  16446.643  0.154279   42479.445
  16450.049   0.1531189   42704.738
  16453.635  0.151613   42804.023
  16457.223  0.15019   42991.293
  16460.635  0.148443   43052.551
  16464.227  0.14855   43340.801
  16467.818  0.147764   43495.035
  16471.412  0.14673   43587.258
  16475.010  0.145583   43683.469
  16478.787  0.144745   43909.668
  16482.387  0.144031   44095.855
  16485.988   0.1430245   44263.027
  16489.771  0.142036   44420.191
  16493.557  0.142607   44607.344
  16497.162  0.1422    44672.48
  16500.949  0.142494   44909.609
  16504.740  0.141713   44987.723
  16508.533  0.140051   45116.824
  16512.326  0.138908   45199.914
  16516.301   0.1384234   45408.992
  16520.100  0.138056   45560.059
  16523.898  0.136851   45707.113
  16527.881  0.136664   45914.156
  16531.865  0.135994   46125.188
  16535.668  0.135072   46221.207
  16539.656  0.13361   46294.211
  16543.645  0.134196   46543.207
  16547.639  0.13283   46637.188
  16551.631  0.131756   46766.156
  16555.809  0.130145   46874.117
  16559.807  0.128973   47009.063
  16563.986  0.127903   47094.996
  16567.988  0.127865   47333.918
  16572.176  0.127125   47400.828
  16576.361  0.125763   47527.727
  16580.371  0.125169   47791.609
  16584.561  0.125281   47990.484
  16588.756  0.125714   48209.348
  16592.953  0.124322   48221.195
  16597.334  0.123428   48387.031
  16601.533  0.121977   48537.859
  16605.736  0.12069   48577.672
  16610.125  0.119095   48684.473
  16614.514  0.118225   48871.262
  16618.725  0.11701   48944.039
  16623.119  0.116042   49084.805
  16627.516  0.115716   49199.559
  16631.916   0.1149483   49300.301
  16636.318  0.114659   49439.027
  16640.725    0.113985   49522.746
  16645.313  0.11356   49691.449
  16649.723   0.1124488   49735.145
  16654.318  0.112732   49957.824
  16658.732  0.111464   50052.492
  16663.332  0.110945   50106.148
  16667.936  0.109654   49993.793
  16672.357  0.108297   50249.426
  16676.965  0.107134   50445.047
  16681.762  0.106374   50562.656
  16686.375  0.105454   50685.254
  16690.990  0.104007   50659.836
  16695.609  0.102966    50823.41
  16700.416  0.10209   50922.969
  16705.041  0.101282    50950.52
  16709.852  0.1014   51096.055
  16714.666  0.100962   51093.578
  16719.299  0.100308   51237.094
  16724.119 0.0991727   51281.594
  16728.941 0.0989263   51345.082
  16733.768 0.0978977   51349.555
  16738.596 0.096919    51427.02
  16743.613 0.0962586   51649.473
  16748.449 0.0945368   51609.914
  16753.285 0.0938999    51805.34
  16758.313 0.092789   51884.758
  16763.342 0.092602    51856.16
  16768.188 0.0920172   51984.551
  16773.223 0.0910983    51883.93
  16778.262 0.0909086   51661.301
  16783.305 0.0884685   51955.656
  16788.348 0.0882792   52093.996
  16793.396 0.0876458   52188.328
  16798.635 0.0865162   52245.648
  16803.689 0.0860707   52379.957
  16808.746 0.0852082    52321.25
  16813.994 0.0840568   52322.535
  16819.059 0.0828536   52305.805
  16824.313 0.0818181   52416.066
  16829.570 0.0814237   52452.313
  16834.832  0.08097037   52641.547
  16840.096 0.0806684    52763.77
  16845.363 0.0797071    52745.98
  16850.635 0.0786307    52657.18
  16855.910 0.0785406   52832.367
  16861.377 0.0779382   52769.543
  16866.658 0.0768957   52820.707
  16872.131 0.0762145   52850.855
  16877.420 0.0750459   52852.996
  16882.900 0.0735708   52716.121
  16888.385 0.0725233   52748.238
  16893.684 0.071984    52768.34
  16899.174 0.071372    52739.43
  16904.670 0.0707199   52768.508
  16910.170 0.0697499   52689.574
  16915.861 0.0691593   52734.629
  16921.367 0.0686767   52700.672
  16926.877 0.0681644   52673.703
  16932.580 0.0672299   52627.719
  16938.098 0.0660496   52551.727
  16943.809 0.0653922   52494.719
  16949.525 0.0646056   52570.703
  16955.055 0.0636688   52493.672
  16960.777 0.0632243   52558.633
  16966.504 0.0620296   52393.578
  16972.234 0.0612336   52432.512
  16977.969 0.0609873   52352.434
  16983.709 0.0601372   52181.344
  16989.643 0.0598364   52197.242
  16995.389 0.0588341   52380.125
  17001.332 0.057938       52157