File: data/Sr/SrCO3_rt_01.xdi
# XDI/1.0  SSRL EXAFS Data Collector 1.1 AD.RGN
# Column.1: energy eV
# Column.2: mutrans
# Column.3: i0
# Beamline.name: SSRL 4-3 (?)
# Element.edge: K
# Element.symbol: Sr
# Mono.d_spacing: 1.92009
# Mono.name: Si(220)
# Mono.notes: (?) unfocussed, detuned 50%, clockwise at E=16800eV
# Sample.formula: SrCO3
# Sample.name: strontianite
# Sample.prep: powder mixed with B2O3
# Sample.reference: none
# Sample.temperature: room temperature
# Scan.start_time: 1997-03-18 20:19:50
# ///
#    Note: mono d_spacing is nominal!
#--------------------------------------------
# energy     mutrans         i0
  15700.043 -0.00684553   68087.602
  15709.991 -0.00698502   67864.602
  15719.954 -0.00586758   67749.602
  15729.931 -0.00661332   67321.602
  15739.919 6.53139e-05   65914.602
  15749.921 -0.0104163   66728.602
  15759.935 -0.0101197   66334.602
  15769.963 -0.0102288   66109.602
  15780.002 -0.0106984   65703.602
  15790.057 -0.0115016   65412.602
  15799.958 -0.0115388   65028.602
  15810.037 -0.00939636   65005.602
  15819.965 -0.01070706   64535.602
  15830.071 -0.00799435   64499.602
  15840.023 -0.0101219   63961.602
  15849.989 -0.00962968   63733.602
  15859.968 -0.01270015   63194.602
  15869.959 -0.0125602   62795.602
  15879.964 -0.0129164   62437.602
  15889.980 -0.0110658   62252.602
  15900.011 -0.0100642   61957.602
  15910.055 -0.0107303   61799.602
  15919.941 -0.01080824   61443.602
  15930.011 -0.0131804   60952.602
  15939.925 -0.0122657   60747.602
  15950.020 -0.0123557   60382.602
  15959.959 -0.0124101   60116.602
  15970.079 -0.0113748   59852.602
  15980.045 -0.0111786   59485.602
  15990.021 -0.0126246   59088.602
  16000.012 -0.0133949   58709.602
  16010.014 -0.0127509   58343.602
  16020.030 -0.0127077   58152.602
  16030.059 -0.0122836   57826.602
  16039.929 -0.0133631   57363.602
  16049.982 -0.011932   56958.602
  16060.049 -0.0108485   56630.602
  16069.959 -0.00935659   56241.602
  16080.051 -0.00294269   55886.602
  16081.248 -0.00282572   55729.602
  16082.448 7.7157e-05   55745.602
  16083.646 0.00113632   55738.602
  16084.846 0.00320234   55767.602
  16086.215 0.00529611   55716.602
  16087.415 0.00753854   55564.602
  16088.613 0.0111754   55636.602
  16089.813 0.0142379   55478.602
  16091.013 0.0172512   55328.602
  16092.214 0.0230537   55300.602
  16093.586 0.0302278   55189.602
  16094.785 0.03986   55156.602
  16095.986 0.0538074   55135.602
  16097.187 0.0715536   54990.602
  16098.387  0.105963   55044.602
  16099.588  0.152159   54958.602
  16100.962  0.23269   54832.602
  16102.162  0.325747   54793.602
  16103.364   0.4272776   54835.602
  16104.565  0.555824   54667.602
  16105.769  0.690952   54610.602
  16106.970  0.851298   54580.602
  16108.173  0.992506   54594.602
  16109.547   1.12858   54388.602
  16110.750   1.21059   54379.602
  16111.952   1.23585   54411.602
  16113.155   1.20415   54310.602
  16114.359   1.13696   54157.602
  16115.563     1.04825   54098.602
  16116.767  0.969959   54060.602
  16118.143  0.88701   54003.602
  16119.345  0.831188   53925.602
  16120.551  0.793626   53872.602
  16121.754  0.767562   53783.602
  16122.960  0.751652   53742.602
  16124.163  0.743445   53757.602
  16125.369  0.738616   53745.602
  16126.746  0.734682   53607.602
  16127.951  0.734346   53491.602
  16129.157  0.738205   53543.602
  16130.362  0.746638   53469.602
  16131.568  0.756912   53339.602
  16132.774   0.7695767   53056.602
  16133.980  0.781747   53061.602
  16135.188  0.794875   52985.602
  16136.568  0.809577   52853.602
  16137.773  0.823224   52905.602
  16138.981  0.837345   52962.602
  16140.188  0.852634   53093.602
  16141.396  0.867701   52975.602
  16142.603  0.88239   52959.602
  16143.812  0.894937   52825.602
  16145.020  0.904427   52800.602
  16146.400  0.910975   52754.602
  16147.607  0.911676   52572.602
  16148.817  0.91136   52528.602
  16150.024   0.9087952    105108.2
  16151.062  0.9036   104741.19
  16152.271  0.89806   104771.16
  16153.481  0.890773   104673.09
  16154.517  0.883334   104521.01
  16155.727  0.873851   104367.91
  16156.937  0.862187   104158.77
  16158.146  0.851753   104124.63
  16159.528  0.839799   103956.45
  16160.740  0.829775   103776.24
  16162.122  0.819662   103589.02
  16163.334  0.813016   103618.77
  16164.718  0.804644    103292.5
  16166.102  0.797684    103223.2
  16167.486  0.791323   103118.88
  16168.871  0.786064   103004.54
  16170.257   0.7827544   102984.18
  16171.642  0.780859   102826.79
  16173.200  0.781279   102763.38
  16174.586  0.783685   102833.94
  16176.146    0.787841   102842.48
  16177.705  0.792728   102771.99
  16179.265  0.798926   103077.48
  16180.825  0.804622   103435.95
  16182.386  0.808851    103712.4
  16183.946  0.812115   104109.82
  16185.680  0.814695   104665.21
  16187.242  0.816579   105219.59
  16188.977  0.817039   105606.94
  16190.539  0.817986   105910.27
  16192.275  0.817474   106131.57
  16194.011  0.818294   106337.85
  16195.748  0.818968    106481.1
  16197.485    0.820148   106569.34
  16199.396  0.821832   106754.55
  16201.134  0.82269   106851.73
  16203.046  0.823302   106999.89
  16204.785  0.822699   107116.03
  16206.698  0.820956   107239.14
  16208.612  0.818058   107473.23
  16210.525  0.813875    107722.3
  16212.439  0.809107   107832.34
  16214.355  0.804245   108116.36
  16216.271   0.7987531   108382.36
  16218.360  0.792824   108665.33
  16220.276  0.787749   108926.28
  16222.367  0.783281    109272.2
  16224.459  0.780131   109515.11
  16226.551  0.777938   109694.98
  16228.644  0.777073   110036.84
  16230.738   0.7763149   110326.67
  16232.832  0.775976   110551.48
  16234.925  0.776112   110911.26
  16237.194  0.776463   111134.02
  16239.290  0.777012   111413.76
  16241.561  0.777707   111642.47
  16243.832  0.778985   111943.16
  16246.104  0.780028   112324.82
  16248.377  0.782404   112835.46
  16250.650  0.784357   113175.08
  16252.925  0.785961   113541.67
  16255.199  0.786321   113866.24
  16257.649  0.785389   114262.79
  16259.925  0.783606   114670.31
  16262.377  0.7819   115025.81
  16264.830  0.780292   115430.29
  16267.282  0.78038   115839.74
  16269.737  0.781954   116164.17
  16272.192  0.783145   116606.58
  16274.646  0.784302   116990.96
  16277.279  0.784837   117386.32
  16279.736  0.784386   117880.66
  16282.369  0.782164   118282.96
  16284.828   0.7807578   118607.25
  16287.463  0.778475   119063.52
  16290.099  0.775828   119566.76
  16292.735  0.773268   119920.97
  16295.373  0.771042   120347.16
  16298.013  0.76902   120875.34
  16300.827  0.767271   121302.48
  16303.468   0.7655903    121701.6
  16306.286  0.763931    122088.7
  16309.104  0.76187   122664.77
  16311.748  0.760681   123137.82
  16314.567  0.760085   123605.85
  16317.388  0.760327   124003.85
  16320.211  0.760755   124542.84
  16323.212  0.761722   124939.79
  16326.035  0.762714   125406.73
  16328.861  0.764096   125983.63
  16331.863  0.764848   126602.52
  16334.867  0.764898   126881.38
  16337.696  0.764906   127492.22
  16340.703    0.763873   128034.03
  16343.710  0.7625   128620.83
  16346.719  0.760374   129110.59
  16349.905   0.7583882   129656.34
  16352.918  0.75681   130084.05
  16355.929  0.75488   130610.75
  16359.119  0.753334   131255.42
  16362.312  0.752225   131760.08
  16365.326  0.750924    132216.7
  16368.521  0.749962    132831.3
  16371.717  0.749554   133437.87
  16374.914  0.749139   133977.44
  16378.111  0.748604   134440.97
  16381.488  0.747762   135010.47
  16384.689  0.746807   135497.95
  16388.068  0.745431   136089.42
  16391.271  0.743651   136627.86
  16394.656  0.742154   137152.27
  16398.039  0.740865   137711.66
  16401.424   0.7396982   138259.03
  16404.813  0.738382   138903.36
  16408.199   0.7375523   139316.69
  16411.590  0.736699   139892.98
  16415.160  0.736893   140546.25
  16418.553  0.737086    141034.5
  16422.127   0.7366681   141584.72
  16425.521  0.736847   142001.92
  16429.098  0.736545   142643.09
  16432.676  0.735752   143234.25
  16436.254  0.734909   143844.37
  16439.834  0.733611   144337.48
  16443.416   0.7326751   144654.58
  16447.180  0.731334   145271.62
  16450.766  0.729984   145864.67
  16454.354  0.728786   146353.67
  16458.121  0.727683   146931.66
  16461.891  0.726526   147450.62
  16465.662  0.725464   148091.56
  16469.438  0.724677   148701.48
  16473.211  0.723711   149339.37
  16476.988  0.722736   149830.25
  16480.768  0.721425   150224.09
  16484.549  0.720355   150841.92
  16488.510   0.7192375   151592.72
  16492.295  0.718584   151987.48
  16496.260  0.717775   152573.25
  16500.229  0.717   153031.97
  16504.199  0.715913   153525.67
  16508.172  0.714857   154188.36
  16512.145   0.7135783   154666.02
  16516.121  0.712739   155130.64
  16520.100  0.711672   155196.25
  16524.080  0.71063   156046.84
  16528.242  0.709441   156370.41
  16532.227  0.708669   157137.94
  16536.393  0.707697   157667.45
  16540.563  0.706652   158455.95
  16544.734  0.705612   158775.42
  16548.906  0.704205   159138.86
  16553.084  0.703128   159937.28
  16557.262  0.701901   160148.69
  16561.441  0.700714   160809.06
  16565.807  0.699598   161102.41
  16569.990   0.6985905   161458.73
  16574.357  0.697687   162070.03
  16578.549  0.696689   162614.31
  16582.922   0.6958256   163287.56
  16587.297   0.6947277    163782.8
  16591.674  0.694538   164472.02
  16596.055  0.69207   164499.19
  16600.438  0.690926   164709.36
  16604.822  0.690138   164907.48
  16609.393  0.688765   165506.61
  16613.783   0.6876194   166065.69
  16618.357  0.686176   166692.77
  16622.754  0.685001    167211.8
  16627.332  0.684028   167681.83
  16631.916   0.6829627   168083.81
  16636.502  0.681693    168400.8
  16641.090  0.680594   168709.73
  16645.682  0.679672   169349.66
  16650.273  0.678535   169543.56
  16655.053  0.677033   169875.44
  16659.652  0.67587    170291.3
  16664.254  0.674848   170659.12
  16669.043   0.6732825   170532.94
  16673.832  0.671954   171163.72
  16678.625  0.670883   172071.47
  16683.420   0.6696438    172303.2
  16688.221  0.668389   172782.92
  16693.023  0.667166   173426.61
  16697.828  0.66594   173285.28
  16702.635  0.664985   173958.92
  16707.445  0.66387   174218.53
  16712.445  0.662662   174389.12
  16717.260  0.661413    174747.7
  16722.264  0.660125   175003.25
  16727.271  0.659081   175093.77
  16732.281  0.65726   175497.27
  16737.295  0.656495   175704.75
  16742.313  0.655202    176067.2
  16747.332  0.653776   176410.62
  16752.355  0.652405   176580.03
  16757.381  0.651087   176815.41
  16762.596  0.649818   177002.77
  16767.629  0.648659   177163.11
  16772.852  0.647326   177383.41
  16777.889  0.645954    176832.7
  16783.117  0.644874   177216.97
  16788.348  0.643577    178530.2
  16793.584  0.642423   178329.42
  16798.822  0.641132   178681.61
  16804.063  0.639569   178856.78
  16809.309  0.638524   179009.92
  16814.744  0.637234   179215.05
  16819.996  0.636281   179559.14
  16825.438   0.6348489   179516.22
  16830.697  0.63349   179857.27
  16836.146  0.632138    179974.3
  16841.600   0.6311214    179660.3
  16847.059  0.629369   180012.28
  16852.330  0.62806   180311.23
  16857.982  0.626557   180078.17
  16863.451   0.6251312   180399.08
  16868.922  0.623885   180515.97
  16874.396  0.622663   180496.83
  16880.064  0.621498   180219.66
  16885.547   0.6201084   180941.47
  16891.223  0.618512   180825.27
  16896.711   0.6173958   180599.03
  16902.396  0.616327   181018.78
  16908.082  0.614899    180863.5
  16913.773  0.613432   180954.19
  16919.469  0.612156   181301.86
  16925.166   0.6106598   180943.52
  16930.869  0.609319   180656.14
  16936.576  0.607503   181285.73
  16942.287  0.60644   180824.31
  16948.191  0.605006   181283.87
  16953.910   0.6034749   181206.41
  16959.822  0.602384   181034.91
  16965.740  0.601228   180981.39
  16971.471  0.599677   180746.86
  16977.396  0.598454    181281.3
  16983.326  0.597291    180583.7
  16989.260  0.595902   180794.09
  16995.197  0.594288   180129.45
  17001.332   0.5930301    180407.8