File: data/Sr/SrCO3_12K_02.xdi
# XDI/1.0 EXAFS Data Collector 1.1 AD.RGN
# Column.1: energy eV
# Column.2: mutrans
# Column.3: i0
# Beamline.name: SSRL 4-3 (?)
# Detector.I0: N2 15cm
# Detector.I1: Ar 30cm
# Element.edge: K
# Element.symbol: Sr
# Mono.d_spacing: 1.92009
# Mono.name: Si(220)
# Mono.notes: (?) unfocussed, detuned 50%, clockwise at E=16800eV
# Sample.formula: SrCO3
# Sample.name: strontianite
# Sample.prep: powder mixed with B2O3 (1:10)
# Sample.reference: none
# Sample.temperature: 12K
# Scan.start_time: 1997-03-17 12:43:45
# ///
#    Note: mono d_spacing is nominal!
#-------------
#   energy   mutrans      i0
  15700.043 -0.0404798   52989.199
  15709.991 -0.0449803   52448.199
  15719.954 -0.0460176   51876.199
  15729.931 -0.0472117   51361.199
  15739.919 -0.0422419   50270.199
  15749.921 -0.04455405   50920.199
  15759.935 -0.0450585   50489.199
  15769.963 -0.04654526   50057.199
  15780.002 -0.0460947   49625.199
  15790.057 -0.0455073   49271.199
  15799.958 -0.0494991   48734.199
  15810.037 -0.04967742   48378.199
  15819.965 -0.0485663   48126.199
  15830.071 -0.049618   47769.199
  15840.023 -0.0499742   47381.199
  15849.989 -0.048432   46973.199
  15859.968 -0.0495926   46673.199
  15869.959 -0.050667   46178.199
  15879.964 -0.0511479   45809.199
  15889.980 -0.0529435   45374.199
  15900.011 -0.0524651   44982.199
  15910.055 -0.05577808   44593.199
  15919.941 -0.05501429   44204.199
  15930.011 -0.0555937   43818.199
  15939.925 -0.0575266   43571.199
  15950.020 -0.0584954   43094.199
  15959.959 -0.0591692   42720.199
  15970.079 -0.0588118   42228.199
  15980.045 -0.0598285   41927.199
  15990.021 -0.0612873   41690.199
  16000.012 -0.0614729   41229.199
  16010.014 -0.0624323   40762.199
  16020.030 -0.0630504   40442.199
  16030.059 -0.06384885   40087.199
  16039.929 -0.0643356   39789.199
  16049.982 -0.0644239   39357.199
  16060.049 -0.0644821   39005.199
  16069.959 -0.06348715   38553.199
  16080.051 -0.0606953   38098.199
  16089.984 -0.0502006   37780.199
  16099.931 0.0813072   37444.199
  16110.063  0.574899   37110.199
  16120.035  0.333773   36584.199
  16121.238  0.326672   36479.199
  16122.443   0.3211093   36500.199
  16123.819  0.317012   36451.199
  16125.024  0.314679   36414.199
  16126.229  0.313449   36465.199
  16127.435   0.3131925   36364.199
  16128.813  0.315796   36382.199
  16130.019  0.321104   36333.199
  16131.225  0.326805   36140.199
  16132.431  0.334626   35971.199
  16133.809  0.342228   35947.199
  16135.016  0.348094   35980.199
  16136.221  0.355062   35972.199
  16137.429  0.3616   35895.199
  16138.808  0.372901   36120.199
  16140.016  0.382008   36049.199
  16141.223  0.390359   35911.199
  16142.431  0.39882   35860.199
  16143.812  0.407151   35852.199
  16145.020  0.412185   35820.199
  16146.228  0.415437   35767.199
  16147.436  0.416318   35659.199
  16148.817   0.4151091   35519.199
  16150.024  0.412656   35503.199
  16151.234   0.4092698   35392.199
  16152.443  0.405617   35536.199
  16153.826  0.399015   35326.199
  16155.034  0.392796   35224.199
  16155.727  0.389793   35300.195
  16156.418   0.3854538   35178.176
  16157.108   0.3812815   35153.145
  16157.800  0.376851   35101.105
  16158.493  0.373068   35131.051
  16159.356  0.368107   35128.984
  16160.047  0.364762   34999.906
  16160.913  0.361027   35052.816
  16161.777  0.35685   34970.711
  16162.642  0.354357   35001.598
  16163.508  0.351095   34847.473
  16164.372   0.3482762   34845.332
  16165.237  0.346217   35077.184
  16166.275  0.343267    35010.02
  16167.140  0.340673   34970.844
  16168.179  0.337505   34796.656
  16169.217  0.335799   34914.461
  16170.084  0.334537    34973.25
  16171.123   0.3339823   34949.027
  16172.160  0.33418   34907.789
  16173.373   0.3351652   34906.543
  16174.412  0.33669   35047.285
  16175.452  0.338711   35102.012
  16176.665  0.342169    35284.73
  16177.705  0.344234   35173.434
  16178.917  0.347439   35199.129
  16180.132  0.350307   35378.809
  16181.345  0.352851   35523.477
  16182.559   0.3549784   35685.133
  16183.772  0.356971   35956.777
  16185.160   0.3576197    36053.41
  16186.374  0.357691   36205.031
  16187.762  0.357928   36455.641
  16188.977  0.358655   36601.238
  16190.365  0.359643    36783.82
  16191.755  0.359428   36833.395
  16193.143  0.360379   37034.953
  16194.532  0.360278     37038.5
  16195.922  0.360569   37144.039
  16197.485  0.360783   37107.563
  16198.874   0.3612093   37142.074
  16200.438  0.361827   37242.574
  16202.004  0.362703   37357.063
  16203.394  0.363222   37488.539
  16204.958  0.362864   37590.004
  16206.524  0.362387   37810.453
  16208.090  0.360656   37787.895
  16209.829  0.358753    37956.32
  16211.396  0.356065   37922.738
  16212.961  0.353403   38139.141
  16214.703  0.349828   38137.531
  16216.444   0.3463397    38405.91
  16218.186  0.342845   38484.281
  16219.927  0.339051   38534.637
  16221.670  0.336055   38765.977
  16223.413  0.333749   38930.309
  16225.156   0.3320639   39141.629
  16226.900   0.3313929   39288.938
  16228.818  0.330858    39391.23
  16230.563  0.330888   39621.516
  16232.480  0.331591   39882.785
  16234.401  0.331267   39858.047
  16236.321  0.332188   39976.293
  16238.242  0.332728   40164.527
  16240.163  0.333631    40230.75
  16242.084  0.334611   40471.961
  16244.181  0.335561    40764.16
  16246.104   0.3366413   40926.348
  16248.202  0.338526    41047.52
  16250.300  0.340063   41109.684
  16252.225  0.341965   41310.836
  16254.323  0.342534   41438.973
  16256.423  0.342488   41688.102
  16258.698  0.34128   41787.215
  16260.801  0.338537   42015.316
  16262.902  0.335771   42018.406
  16265.180  0.334444   42464.484
  16267.282  0.333744   42715.551
  16269.562  0.333642   42687.605
  16271.841  0.334327   42870.648
  16274.121  0.335204    43102.68
  16276.400   0.3357472   43166.695
  16278.682  0.337119   43476.703
  16280.965  0.338047   43794.695
  16283.422  0.337288    43870.68
  16285.705  0.336696   44047.648
  16288.165  0.334903   44221.605
  16290.450  0.332927   44587.551
  16292.911  0.330377   44657.488
  16295.373  0.328083    44921.41
  16297.836  0.326628   45130.316
  16300.300  0.325052   45229.215
  16302.764    0.324615   45678.102
  16305.404  0.3228   45721.977
  16307.870  0.32116   45854.836
  16310.514  0.320523   46253.688
  16312.980  0.319694   46498.523
  16315.624  0.318831   46624.348
  16318.271  0.319864    46866.16
  16320.918  0.320679   47104.965
  16323.563  0.32196   47342.754
  16326.212   0.3236089   47475.531
  16329.038  0.325429   47622.293
  16331.687  0.327185   48052.047
  16334.515  0.328067   48272.789
  16337.165  0.327837    48395.52
  16339.995  0.327294   48740.234
  16342.827  0.325953   48856.941
  16345.657  0.324325   49148.633
  16348.490  0.322495   49353.313
  16351.322   0.3205575    49548.98
  16354.333  0.319127   49782.641
  16357.169  0.31764   49897.285
  16360.007  0.315891   49996.918
  16363.021  0.314517   50317.535
  16366.036  0.313148   50506.145
  16369.054  0.31293   50857.742
  16372.071  0.312934   51253.328
  16375.092  0.312986   51165.898
  16378.111  0.313486   51380.461
  16381.133  0.313894   51678.008
  16384.156  0.314345   51935.543
  16387.357  0.313749   52036.066
  16390.383  0.312735   52237.578
  16393.586  0.31123   52447.082
  16396.791  0.309966   52841.566
  16399.998  0.308774   52995.043
  16403.207  0.308233   53076.508
  16406.416  0.306956   53357.961
  16409.627  0.305978   53718.398
  16412.840   0.3054082   54003.828
  16416.230  0.305834   54025.242
  16419.445  0.306472   54287.648
  16422.840  0.306867   54480.039
  16426.057  0.30758   54733.418
  16429.455   0.3080212   55083.785
  16432.854  0.307545   55023.141
  16436.254  0.306811   55115.484
  16439.656  0.30587   55429.816
  16443.236  0.305642   55874.137
  16446.643   0.3046664   55900.445
  16450.049  0.303563   56252.738
  16453.635  0.302064   56203.023
  16457.223  0.300986   56505.293
  16460.635  0.299854   56702.551
  16464.227  0.298954   56797.801
  16467.818  0.298765   57242.035
  16471.412  0.298311   57401.258
  16475.010    0.297819   57598.469
  16478.787  0.296961   57596.668
  16482.387  0.295705   57731.855
  16485.988  0.294888   58088.027
  16489.771  0.294785   58281.191
  16493.557  0.295208   58498.344
  16497.162  0.295171    58582.48
  16500.949  0.295112   58748.609
  16504.740  0.294296   59268.723
  16508.533  0.293779   59267.824
  16512.326  0.292646   59338.914
  16516.301  0.292406   59423.992
  16520.100  0.29194   59687.059
  16523.898  0.290798   60075.113
  16527.881  0.290639   60353.156
  16531.865  0.290315   60415.188
  16535.668  0.289655   60625.207
  16539.656   0.2888324   60762.211
  16543.645  0.288228   60852.207
  16547.639   0.2877852   61017.188
  16551.631   0.2866078   61370.156
  16555.809  0.286135   61711.117
  16559.807   0.2851366   61757.063
  16563.986  0.284028   61617.996
  16567.988  0.283462   61655.918
  16572.176  0.283068   61754.828
  16576.361  0.282483   62158.727
  16580.371  0.282478   62314.609
  16584.561  0.282385   62678.484
  16588.756  0.282381   62582.348
  16592.953  0.281747   62945.195
  16597.334  0.280729   62923.031
  16601.533  0.279791   63327.859
  16605.736  0.278661   63160.672
  16610.125  0.27762   63453.473
  16614.514  0.276411   63633.262
  16618.725  0.275546   63654.039
  16623.119   0.2750562   64048.805
  16627.516  0.274563   63962.559
  16631.916  0.274218   64271.301
  16636.318  0.274233   64482.027
  16640.725  0.274176   64657.746
  16645.313  0.273693   64478.449
  16649.723  0.273055   64414.145
  16654.318  0.272823   64588.824
  16658.732  0.272228   64658.492
  16663.332  0.271636   64812.148
  16667.936   0.2710343   64538.793
  16672.357   0.2693909   65175.426
  16676.965  0.268607   65606.047
  16681.762  0.267887   65395.656
  16686.375  0.267122   65424.254
  16690.990  0.266339   65499.836
  16695.609  0.265913   65927.414
  16700.416   0.2654204   65675.969
  16705.041  0.264881   65820.516
  16709.852  0.26552   65770.055
  16714.666  0.264715   65770.578
  16719.299  0.263922   66010.094
  16724.119  0.263397   66170.594
  16728.941  0.262736   66167.078
  16733.768  0.261843   66518.555
  16738.596  0.260965   66756.023
  16743.613  0.26015   66819.469
  16748.449   0.2593588   66680.914
  16753.285  0.25801   66650.344
  16758.313   0.2570277   66752.758
  16763.342  0.256948   67109.156
  16768.188  0.256743   66708.555
  16773.223   0.2563863    66836.93
  16778.262  0.25681   66363.297
  16783.305  0.254048   66963.656
  16788.348  0.254207       67264
  16793.396  0.253874   67206.328
  16798.635  0.253041   67126.648
  16803.689  0.251773   67444.953
  16808.746  0.251489    67578.25
  16813.994   0.2512351   67461.531
  16819.059  0.250306   67689.805
  16824.313  0.250124   67366.063
  16829.570  0.249452   67384.313
  16834.832  0.248661   67558.547
  16840.096  0.248501   67618.773
  16845.363  0.247645   67563.984
  16850.635  0.246685    67525.18
  16855.910  0.245489   67952.367
  16861.377   0.2448799   67672.539
  16866.658  0.244305   67678.703
  16872.131  0.243076   67655.859
  16877.420  0.242292   67936.992
  16882.900  0.241698   67800.125
  16888.385  0.241   67987.234
  16893.684   0.2406537   67629.336
  16899.174  0.239886    67778.43
  16904.670  0.239353   67883.508
  16910.170  0.238495   68146.578
  16915.861  0.238468   67917.633
  16921.367  0.237998   67743.672
  16926.877   0.2382152   67844.703
  16932.580  0.237071   68224.719
  16938.098  0.236178   68006.727
  16943.809  0.236023   67727.719
  16949.525  0.234675   67881.703
  16955.055  0.234354   67825.672
  16960.777  0.232288   68028.633
  16966.504  0.231673   67981.578
  16972.234   0.2307709   68140.508
  16977.969  0.233074    68172.43
  16983.709  0.232563   67766.344
  16989.643  0.229503   67843.242
  16995.389  0.228971   67979.125
  17001.332  0.228886       67587