File: data/Sr/SrO_rt_02.xdi
# XDI/1.0 EXAFS Data Collector 1.1 AD.RGN
# Column.1: energy eV
# Column.2: mutrans
# Column.3: mufluor
# Column.4: murefer
# Column.5: i0
# Beamline.name: SSRL 4-3
# Detector.I0: N2 15cm
# Detector.I1: N2+Ar 30cm
# Detector.If: Ar   (Lytle detector, using Rb Filter)
# Detector.I2: Ar
# Element.edge: K
# Element.symbol: Sr
# Mono.d_spacing: 1.920128
# Mono.name: Si(220)
# Mono.notes: (?) unfocussed, detuned 50%, clockwise at E=17000eV
# Sample.formula: SrO
# Sample.name: strontium oxide
# Sample.prep: powder
# Sample.reference: SrCO3
# Sample.temperature: room temperature
# Scan.start_time: 1995-06-14 19:09:21
# ///
#    Note: mono d_spacing is nominal!
#-------------
#   energy   mutrans    mufluor     murefer      i0
  15699.933   -1.626806  0.378983   1.07781   197185.59
  15710.044  -1.62927  0.37632   1.07652   195899.59
  15719.844  -1.63178  0.37301   1.07523   194723.59
  15729.982  -1.63425  0.368426   1.07392   193343.59
  15740.136  -1.63685  0.365335   1.07258   191927.59
  15749.973  -1.63932  0.361231   1.07135   190581.59
  15760.152  -1.64202  0.358373   1.07003   187114.59
  15770.016  -1.64438  0.353485   1.06885   188228.59
  15779.891  -1.64676  0.348549    1.067543   187479.59
  15790.109  -1.64932  0.345111   1.06614   186110.59
  15800.011  -1.65178   0.3408116   1.0649   184717.59
  15809.925  -1.65421  0.337342   1.06366   183510.59
  15819.854  -1.65673  0.33273   1.06234   182273.59
  15830.124  -1.65925  0.329111   1.06102   181166.59
  15840.076   -1.661688  0.325548   1.05973   180040.59
  15850.042  -1.6641  0.321519   1.05841   178853.59
  15860.021  -1.66655  0.318105   1.05713   177359.59
  15870.012  -1.66898  0.3148   1.0559   176549.59
  15880.018  -1.67145  0.311101   1.05459   175106.59
  15890.033  -1.67389  0.308519   1.05334   173930.59
  15900.063   -1.676343   0.3054774   1.052   172804.59
  15910.108  -1.67873  0.3025   1.05071   171609.59
  15920.164  -1.68118  0.300127   1.04945   170470.59
  15929.896  -1.68349  0.29752    1.048131   169275.59
  15939.978  -1.6859   0.2958046   1.04685   168012.59
  15950.073  -1.68825   0.2942089   1.04556   166510.59
  15959.844  -1.69052  0.293082   1.04443   165345.59
  15969.964  -1.69286  0.292109   1.04301   164328.59
  15980.097  -1.69515  0.291933   1.04178   163088.59
  15989.906  -1.69736  0.292998    1.040547   161932.59
  16000.064  -1.69967  0.294126   1.03923   160743.59
  16009.897  -1.70179  0.295073   1.03802   159512.59
  16020.082  -1.70396   0.2994034   1.03672   158197.59
  16029.942   -1.706106  0.303371   1.03544   157005.59
  16040.152  -1.70799  0.309889   1.03424   155671.59
  16050.036  -1.7098  0.319068   1.03306   154615.59
  16059.933  -1.71139  0.331367   1.03186   153376.59
  16069.841  -1.71274  0.346653    1.030718   152183.59
  16080.104  -1.71368  0.372963   1.02953   150966.59
  16090.039  -1.71381  0.408335   1.02844   149707.59
  16099.984  -1.71247   0.4679784   1.02754   148318.59
  16109.943  -1.70785   0.5762303   1.02704   147265.59
  16119.917  -1.69313  0.838919   1.02752   146241.59
  16121.293  -1.69005  0.889206   1.02771   146115.59
  16122.670  -1.68578  0.956237   1.02796   145938.59
  16123.702  -1.68196   1.01773    1.028271   145735.59
  16125.079  -1.67495    1.126243   1.02878   145705.59
  16126.112  -1.66834    1.228647   1.02943   145662.59
  16127.490   -1.655988   1.41556    1.030579   145451.59
  16128.867  -1.63711   1.69915   1.03239   145334.59
  16129.901  -1.61652   2.00196   1.03437   145089.59
  16131.278  -1.5713   2.64989   1.03892   144849.59
  16132.657  -1.50385   3.562    1.046021   144983.59
  16133.690  -1.4401    4.367793   1.05311   144786.59
  16135.069  -1.33368   5.5813   1.06539   144484.59
  16136.104  -1.24835   6.46036   1.07517   144468.59
  16137.483    -1.12047   7.65516   1.09026   144285.59
  16138.861 -0.98668   8.79493   1.10738   144074.59
  16139.897 -0.882391   9.63027   1.12141   144207.59
  16141.276 -0.741036   9.64844   1.13987   143903.59
  16142.657 -0.619118   9.66421   1.15346   143668.59
  16143.692 -0.553545   9.67296   1.15852   143538.59
  16145.073 -0.507805   9.68162   1.15803   143409.59
  16146.108 -0.510165   9.70615   1.1531   143047.59
  16147.490 -0.549331   9.70268   1.1432   143098.59
  16148.871 -0.605139   9.7176    1.132474   142878.59
  16149.907 -0.644607   9.72357    1.125354   142790.59
  16151.289 -0.690999    9.737629   1.11693   142584.59
  16152.670 -0.724741   9.75309   1.11112   142358.59
  16153.707 -0.744984   9.76982   1.10821   142114.59
  16155.090 -0.770424   9.76196    1.105596   284457.19
  16155.779 -0.78134    9.759134   1.10467   284539.16
  16156.473 -0.793198   9.7646   1.10396   284449.06
  16157.162 -0.805315   9.7696   1.10331   284371.91
  16157.854 -0.817908   9.76892   1.1028   284535.69
  16158.547 -0.830435   9.78558    1.102368   284259.41
  16159.237 -0.842494   9.77854    1.102094   284467.06
  16160.274 -0.85965   9.66039    1.102057   284615.66
  16160.968 -0.868208    9.601248   1.10227   284420.19
  16161.659 -0.875425   9.55208   1.10249   284331.66
  16162.695 -0.882848   9.50703    1.103422   284453.06
  16163.389 -0.884548   9.4979   1.10411   284627.37
  16164.426 -0.883599   9.5178   1.10544   284551.66
  16165.465 -0.878926   9.56227   1.1068   284592.87
  16166.157 -0.874467   9.59968   1.10761   284488.03
  16167.195 -0.865817   9.6692   1.10885   283942.09
  16168.234 -0.856365   9.74811   1.10978   284134.12
  16169.271 -0.846332    9.837256   1.11058   284225.09
  16170.311 -0.836009   9.91822    1.111622      284772
  16171.349 -0.825732   9.94244   1.11281   285371.81
  16172.388 -0.815323   9.94266   1.11399   285920.59
  16173.428 -0.804923   9.92614   1.11543   287046.28
  16174.466 -0.794722   9.91599   1.11679   288056.94
  16175.506 -0.785429   9.9136    1.117948   288843.53
  16176.545 -0.776796   9.92884   1.11901   289185.03
  16177.932 -0.76651   9.96141    1.119997    289055.5
  16178.971 -0.760076   9.96721   1.12042   289736.87
  16180.012 -0.754608    9.976878   1.12067   290305.22
  16181.399 -0.749308   9.99683   1.12046   290640.47
  16182.440 -0.747124   10.0074   1.12002   291281.69
  16183.826 -0.746381   10.0148   1.11922   292013.81
  16185.214 -0.747693   10.0239   1.11823   292760.91
  16186.254 -0.749685   10.0331   1.11746   293506.91
  16187.644 -0.753283   10.0586   1.11613   293840.87
  16189.030 -0.757149   10.0806   1.11472   294274.75
  16190.419  -0.7612193   10.0855   1.11322   295273.59
  16191.809 -0.765788   10.099   1.11152   296019.34
  16193.197 -0.771118   10.1072   1.11008   296987.03
  16194.587 -0.777723   10.1166   1.10869   297914.69
  16195.976 -0.785638   10.132   1.10755   298702.25
  16197.366 -0.794526   10.151   1.10643   299468.75
  16198.755 -0.804085   10.1619   1.10543   300534.22
  16200.493 -0.816257   10.151   1.1044   301241.59
  16201.884 -0.824849   10.0928   1.10371   301765.91
  16203.274 -0.832366   10.0395   1.10322   303368.16
  16205.013 -0.840209   9.99045   1.10289   304090.34
  16206.405 -0.844541   9.96178     1.10286    304911.5
  16208.145 -0.848145    9.944221   1.10317   306058.56
  16209.884  -0.8495874   9.93827    1.103601   307199.56
  16211.276 -0.849522   9.94708   1.10409    308119.5
  16213.016 -0.848031   9.9666   1.10468   309408.37
  16214.757  -0.8455049   9.99235   1.10511   310171.19
  16216.499 -0.842233   10.0201   1.10539   311745.94
  16218.240 -0.838686   10.057   1.1055   312626.66
  16219.981 -0.834985   10.0922   1.1056   314013.28
  16221.725 -0.831274   10.1264   1.10552   315034.84
  16223.468 -0.8278   10.1556   1.10533   315764.34
  16225.210 -0.824614   10.1916   1.10522   316495.78
  16226.954 -0.821839   10.2167   1.105   317472.16
  16228.698 -0.819938   10.2294   1.10484   317890.47
  16230.792 -0.818985   10.2428   1.10482   319043.72
  16232.535 -0.819414   10.2453   1.10479   319722.87
  16234.281 -0.8206   10.2425   1.10471      320609
  16236.376 -0.822553   10.2367   1.10453   321688.06
  16238.122 -0.8242   10.2376   1.10426   323333.06
  16240.217 -0.825949   10.2338    1.103619      325258
  16242.313  -0.8276649   10.2341   1.10289   327029.87
  16244.061 -0.829339   10.2307   1.1021   329022.69
  16246.159 -0.831625    10.22629   1.10117   331884.41
  16248.257 -0.834062   10.2189   1.10022   334010.09
  16250.354 -0.836654   10.2097   1.09903   336470.72
  16252.454 -0.839447   10.1951   1.09902   338635.28
  16254.553  -0.8424202   10.177   1.09845   340598.78
  16256.653 -0.845407    10.15424   1.09763   342499.19
  16258.753  -0.8486454   10.1347   1.09727   343535.56
  16260.855 -0.851849   10.1121   1.09685   344511.87
  16262.957 -0.85506   10.0965   1.09657   345709.09
  16265.059 -0.858231   10.0796   1.09627   347314.28
  16267.162 -0.861531   10.0609   1.09599   348702.41
  16269.616 -0.865402   10.0397   1.0957   350020.44
  16271.719 -0.868216    10.02866   1.09541   352062.44
  16274.174 -0.87057    10.01789   1.09521   353574.34
  16276.280 -0.871406   10.0255   1.0951   356062.22
  16278.736 -0.871068   10.0374   1.09494      357455
  16280.844  -0.8699348   10.0563   1.09497   359852.75
  16283.301 -0.86804   10.0814   1.095   361191.41
  16285.760 -0.866013     10.1075   1.09497   363414.03
  16288.220 -0.864356   10.1285   1.0948   365338.56
  16290.328 -0.86343   10.1473   1.0945   367446.06
  16292.790 -0.862671   10.161   1.09408   369139.47
  16295.252 -0.862067    10.17499   1.09362   370700.84
  16297.715 -0.861455   10.1911   1.09307   371971.12
  16300.179 -0.86074   10.2078   1.0927   373742.34
  16302.994   -0.860439   10.2194   1.09251   375371.53
  16305.459 -0.861092   10.2233   1.09247   377537.62
  16307.925 -0.862963    10.21562   1.0924   379507.69
  16310.392 -0.866015   10.2001   1.09202   381361.66
  16313.211 -0.869879   10.1831    1.091651   383329.56
  16315.680 -0.872633   10.1709   1.0913   384573.41
  16318.148 -0.874438   10.1684   1.09094   386921.22
  16320.972 -0.875558   10.1703   1.09038   388276.94
  16323.442 -0.875993   10.1777   1.08987   390592.59
  16326.268 -0.876323   10.1869   1.08919   392338.19
  16329.092 -0.876652   10.1946    1.088655   394474.72
  16331.564 -0.877098   10.2014   1.08822   396244.22
  16334.393 -0.877649   10.211   1.08772   398171.62
  16337.221 -0.878498   10.2159   1.08718   399933.97
  16340.050 -0.879722   10.2158   1.08664   401995.25
  16342.881 -0.881367   10.217   1.08617   404513.47
  16345.713 -0.88346   10.2124   1.08563   406314.62
  16348.544 -0.885874   10.2041   1.08524   407996.72
  16351.378 -0.888313   10.1974   1.08503   409745.75
  16354.211 -0.890581    10.19157   1.08473   412203.72
  16357.047  -0.8925725   10.1841   1.08456   414164.62
  16360.238 -0.89451   10.1862   1.08448   415524.47
  16363.076 -0.895779   10.1881   1.08431   417222.25
  16365.914 -0.896471   10.1951   1.08409   419684.97
  16369.107 -0.896621    10.20461   1.08372   421895.62
  16371.948 -0.896519   10.2178    1.083374   423710.22
  16375.146 -0.896503   10.2311   1.08293   425226.75
  16377.989 -0.896752   10.2378   1.08244   427766.22
  16381.188 -0.897422   10.2461   1.08187   429803.62
  16384.389 -0.898242   10.2547   1.08127   431923.97
  16387.234 -0.898985    10.25934   1.0808   433812.22
  16390.438 -0.899824   10.2674   1.08023   435271.44
  16393.641 -0.900745   10.2744   1.0797   437389.59
  16396.848 -0.901939   10.2787   1.07924   439786.69
  16400.055 -0.903288   10.2808   1.07877   441667.72
  16403.262 -0.905001   10.2806   1.07833   443480.66
  16406.471 -0.906933   10.2785   1.07791   445698.56
  16409.684 -0.909108   10.2743     1.07759   447628.41
  16412.895 -0.911374    10.27059   1.07717   449354.16
  16416.107  -0.9135051   10.2645   1.07679   451720.87
  16419.320 -0.915542   10.2621   1.07629   453292.53
  16422.895 -0.917505   10.262   1.07584   454760.09
  16426.111 -0.9188   10.2621   1.07526   456645.62
  16429.332  -0.9197569   10.2688   1.07474   459050.09
  16432.908 -0.920639   10.2762   1.07417   460732.47
  16436.129 -0.92135   10.2861   1.07368   463291.81
  16439.711  -0.9221354   10.2958   1.07322   464976.06
  16443.291 -0.923051   10.3028   1.07274   467047.28
  16446.518 -0.923946   10.3065   1.07238   469311.41
  16450.104 -0.924994   10.3135   1.07192    470718.5
  16453.689 -0.926041   10.3188   1.07156    472797.5
  16457.277 -0.927185   10.3239   1.07118   474863.47
  16460.510 -0.928396   10.331   1.07085   477175.34
  16464.100 -0.92993   10.3313   1.07042   478800.19
  16467.695 -0.931586   10.3332   1.06994   481035.94
  16471.289 -0.933234   10.3349   1.06949   483166.66
  16474.885 -0.934877   10.3369    1.068947   484670.28
  16478.842 -0.936512   10.3396   1.06837   486406.84
  16482.441 -0.937855   10.3462   1.06789   487963.37
  16486.043 -0.939095   10.3519   1.06737   488536.81
  16489.646 -0.940195   10.3574   1.06682   491262.19
  16493.611 -0.941239   10.3648   1.06633    493108.5
  16497.217 -0.94206   10.3733   1.06586   495698.78
  16500.826 -0.942891    10.37897   1.06533   497395.97
  16504.797 -0.943945   10.3903   1.06481   498335.09
  16508.406 -0.94494   10.395    1.064364   500810.16
  16512.381 -0.946318   10.4005   1.06388   501603.19
  16516.357 -0.947809   10.4042   1.06326   503217.12
  16519.975 -0.949266    10.40744   1.0628      505411
  16523.953 -0.950956   10.4075    1.062316   507880.81
  16527.936 -0.952795   10.4104   1.06181   509185.56
  16531.920 -0.954618   10.4106   1.06131   510969.25
  16535.906 -0.956418   10.4157   1.06086   512174.87
  16539.531 -0.957868    10.41651   1.06036   514514.44
  16543.520 -0.959404   10.4221   1.0598   515420.97
  16547.875 -0.961017   10.4273   1.05925   517238.41
  16551.867 -0.962361    10.43018   1.05872   518895.78
  16555.863 -0.963848   10.4362   1.05816   519790.09
  16559.861 -0.965308   10.4433   1.05762   522469.34
  16563.859 -0.96658   10.4463    1.057105    524362.5
  16567.863 -0.96789   10.4532   1.05658   525263.62
  16572.230 -0.969207   10.4594   1.0561   527047.69
  16576.234 -0.97041   10.4676   1.05547   528243.69
  16580.607 -0.971728    10.47534   1.05493   529699.62
  16584.617  -0.9729941   10.4789   1.05437    530600.5
  16588.992 -0.974535    10.48538   1.05381   531796.31
  16593.008 -0.975926   10.487   1.05323   533662.06
  16597.387  -0.9775933   10.4924   1.0527   534463.75
  16601.406 -0.979137   10.4956   1.05216   535967.37
  16605.793 -0.980818   10.4995   1.05168   536513.94
  16610.182 -0.982451   10.5043   1.05111   539131.37
  16614.570 -0.984111   10.5116   1.05061   540268.81
  16618.963 -0.985637   10.5132   1.0501   541452.19
  16622.992 -0.98715   10.5207   1.04951    542046.5
  16627.389 -0.988752   10.5251   1.04892   543589.75
  16631.789 -0.990349   10.5291   1.04835   544945.94
  16636.191  -0.9920579   10.5303     1.04774   545802.06
  16640.963 -0.99375   10.5371   1.0471   547659.06
  16645.369 -0.99534   10.5425   1.04646   548427.06
  16649.779 -0.996825   10.5484   1.0459      549740
  16654.189 -0.998297   10.5527   1.04534   551116.87
  16658.604 -0.999839   10.5615   1.04473   551715.69
  16663.389  -1.00145   10.5627    1.044188   552156.37
  16667.809  -1.00299   10.5683   1.04364   553985.06
  16672.598  -1.00474   10.5725   1.04305   554008.69
  16677.021  -1.00641   10.5789   1.04243   554282.25
  16681.818  -1.0082   10.5815   1.04183   555431.69
  16686.246   -1.009856   10.5868   1.04132   556757.12
  16691.047   -1.011673   10.5933   1.04066    555326.5
  16695.480  -1.01325   10.5979   1.04015   557013.81
  16700.287  -1.01495   10.5997   1.03951      558772
  16705.096  -1.01665   10.6069   1.03894   558399.19
  16709.908  -1.01821   10.6101   1.03832   558169.31
  16714.723  -1.02008    10.61896   1.03766   559775.31
  16719.170  -1.02155   10.6199   1.03712   561129.31
  16723.990  -1.02314   10.6273   1.03653   561447.25
  16728.813  -1.02477   10.6342   1.03593   561809.06
  16733.639  -1.02638   10.6412   1.03529   562602.87
  16738.840  -1.02815   10.6453   1.03465   563326.62
  16743.670  -1.02978   10.6504    1.034038   563342.25
  16748.506  -1.0314   10.6547   1.0335   563663.87
  16753.342  -1.03304   10.6622   1.0329   564999.44
  16758.182   -1.034725   10.6657   1.03228   565427.87
  16763.396  -1.03657   10.6729   1.03159   566173.31
  16768.244  -1.03826   10.6776   1.03098   566763.62
  16773.094  -1.03997   10.6832   1.03037   566676.94
  16778.318  -1.04182   10.6869   1.02974   567232.12
  16783.174  -1.04349   10.6935   1.02908   566703.31
  16788.404  -1.04527   10.6986   1.02846   567943.44
  16793.641  -1.04709   10.705    1.027821   566588.44
  16798.504  -1.04875   10.7077   1.02724   566610.44
  16803.746  -1.05054   10.7132    1.026615   566596.31
  16808.990  -1.05227   10.7204   1.02591   565987.19
  16813.863  -1.05353   10.7208   1.02544   563734.94
  16819.115  -1.05583    10.73413   1.02465   566779.69
  16824.369  -1.05728   10.7387   1.02414   568114.31
  16829.627  -1.05896   10.7417   1.02348   567544.94
  16834.887  -1.06071   10.7479   1.02283   568029.44
  16840.152  -1.06248   10.7547   1.02225   567393.94
  16845.420   -1.064243   10.7602     1.02158   566770.31
  16850.691  -1.06599    10.76195   1.021   566700.62
  16855.965  -1.06767   10.7701   1.02031   566440.94
  16861.244   -1.069399   10.7788   1.01977   566212.12
  16866.525  -1.07116   10.7824   1.01915   566299.31
  16872.188  -1.07305   10.7879   1.01848   565685.37
  16877.477  -1.07486   10.7969   1.01788   565665.37
  16882.768  -1.07662   10.799   1.01723   564101.37
  16888.441  -1.07849   10.8066   1.01653   564796.25
  16893.740  -1.08025   10.813   1.01592   564209.12
  16899.041  -1.08195   10.8169   1.01532   563644.87
  16904.727  -1.08382    10.82312   1.01461   562224.56
  16910.416  -1.08562   10.8297   1.01397   562151.25
  16915.729  -1.08734   10.8324   1.01331   560829.81
  16921.424  -1.08919   10.8395   1.0126   560492.31
  16926.744  -1.09086    10.84545   1.01205   560657.81
  16932.447  -1.09279   10.8499   1.01139   559428.19
  16938.154  -1.09464   10.8581    1.010747    558394.5
  16943.865   -1.096507    10.86186   1.01004   557780.81
  16949.582  -1.09837   10.8684   1.00944      556311
  16955.301  -1.10023   10.8743   1.0088   554988.12
  16960.643  -1.10196   10.8787   1.00816   554714.19
  16966.371  -1.10375    10.88515   1.0075   554427.25
  16972.100  -1.10565   10.8921   1.00679   553191.19
  16977.836  -1.10748   10.8964   1.00618   553912.06
  16983.957  -1.10939   10.9051   1.00547   551577.87
  16989.699  -1.11121    10.90617   1.00488   549739.69
  16995.447  -1.11298   10.9141   1.00423   548030.37
  17001.197  -1.11477   10.9204   1.00358      546437