File: data/Sr/SrO_10K_02.xdi
# XDI/1.0 EXAFS Data Collector 1.1 AD.RGN
# Column.1: energy eV
# Column.2: mutrans
# Column.3: murefer
# Column.4: i0
# Beamline.name: SSRL 4-3
# Detector.I0: N2 15cm
# Detector.I1: N2+Ar 30cm
# Detector.I2: Ar
# Element.edge: K
# Element.symbol: Sr
# Mono.d_spacing: 1.920128
# Mono.name: Si(220)
# Mono.notes: (?) unfocussed, detuned 50%, clockwise at E=17000eV
# Sample.formula: SrO
# Sample.name: strontium oxide
# Sample.prep: powder
# Sample.reference: SrCO3
# Sample.temperature: 10K
# Scan.start_time: 1995-06-16 02:32:00
# ///
#    Note: mono d_spacing is nominal!
#-------------
#   energy   mutrans        murefer      i0
  15699.933  0.994143  -1.12128   71919.703
  15710.044  0.992462  -1.12299   71523.703
  15719.844   0.9912779  -1.12438   71177.703
  15729.982  0.98974  -1.12592   70769.703
  15740.136  0.988164  -1.12731   70405.703
  15749.973  0.986621  -1.12885   69980.703
  15760.152  0.986352  -1.13029   68666.703
  15770.016  0.980433  -1.13177   69303.703
  15779.891  0.981948  -1.13327   69029.703
  15790.109   0.9803124  -1.13489   68655.703
  15800.011    0.978867  -1.13629   68303.703
  15809.925  0.977375  -1.13775   67954.703
  15819.854  0.975877   -1.139243   67579.703
  15830.124  0.974429  -1.14087   67203.703
  15840.076  0.972972  -1.14228   66830.703
  15850.042  0.971522  -1.14376   66461.703
  15860.021  0.970064  -1.14536   66074.703
  15870.012  0.968631  -1.14676   65737.703
  15880.018  0.96721  -1.1483   65428.699
  15890.033  0.965878   -1.149841   65044.699
  15900.063   0.9644614  -1.15144   64666.699
  15910.108  0.963082  -1.15289   64252.699
  15920.164  0.96165  -1.15446   63922.699
  15929.896   0.9603415  -1.15602   63585.699
  15939.978  0.95892  -1.15739   63299.699
  15950.073  0.957451  -1.15894   62857.699
  15959.844  0.955665  -1.16035   62490.699
  15969.964  0.955669  -1.16185   62134.699
  15980.097  0.953567  -1.16343   61770.699
  15989.906   0.9522724    -1.16487   61405.699
  16000.064   0.9513103  -1.16639   61144.699
  16009.897  0.949711  -1.16778   60824.699
  16020.082  0.948407  -1.16931   60453.699
  16029.942  0.947854  -1.17076   60079.699
  16040.152  0.94659  -1.17235   59681.699
  16050.036  0.945464  -1.17372   59377.699
  16059.933   0.9447166  -1.17531   59006.699
  16069.841    0.944092  -1.17665   58617.699
  16080.104  0.944004  -1.17833   58306.699
  16090.039  0.944531  -1.17973   57915.699
  16099.984  0.946426  -1.18128   57592.699
  16109.943  0.950737  -1.18251   57256.699
  16119.917  0.963224  -1.18399   56854.699
  16121.293  0.965757  -1.18414   56859.699
  16122.670  0.96921  -1.18451   56771.699
  16123.702  0.972104  -1.18445   56806.699
  16125.079  0.977205  -1.18462   56783.699
  16126.112  0.982008  -1.18473   56744.699
  16127.490  0.990563  -1.18495   56658.699
  16128.867   1.00207  -1.18501   56611.699
  16129.901    1.013896  -1.18505   56554.699
  16131.278     1.03901  -1.18535   56548.699
  16132.657   1.08141  -1.18546   56476.699
  16133.690   1.12989  -1.18532   56446.699
  16135.069   1.22548  -1.18529   56434.699
  16136.104   1.30996  -1.18515   56376.699
  16137.483   1.42928  -1.18461   56326.699
  16138.861    1.531179  -1.18424   56242.699
  16139.897   1.59295  -1.18387   56245.699
  16141.276   1.68167  -1.18368   56218.699
  16142.657   1.79436  -1.18332   56126.699
  16143.692    1.885156  -1.18251   56079.699
  16145.073   2.00093  -1.18183   56003.699
  16146.108   2.04955  -1.1817   55928.699
  16147.490   2.04804  -1.18135   55944.699
  16148.871   1.9959  -1.18236   55803.699
  16149.907    1.949183  -1.18299   55791.699
  16151.289   1.89274  -1.18357   55703.699
  16152.670   1.85317  -1.18394   55711.699
  16153.707   1.83052  -1.18415   55692.699
  16155.090   1.80263  -1.18439    111354.4
  16155.779   1.79134  -1.18458   111279.36
  16156.473   1.78033  -1.18477   111175.25
  16157.162   1.76986  -1.18498   111214.05
  16157.854   1.76062  -1.18521   111138.79
  16158.547   1.75227  -1.1852   111245.44
  16159.237   1.74425  -1.18528   111190.02
  16160.274   1.73218   -1.185503   111142.52
  16160.968   1.72413  -1.18569   111319.95
  16161.659    1.715473   -1.185811   111347.29
  16162.695   1.70176   -1.186097   111483.56
  16163.389   1.69405  -1.18636   111445.76
  16164.426   1.68393  -1.18649   111526.87
  16165.465   1.67853  -1.18673   111602.91
  16166.157   1.6776   -1.186734   111627.87
  16167.195   1.6798  -1.18697   111681.77
  16168.234   1.68478   -1.186985   111603.58
  16169.271   1.69096  -1.18728   111411.31
  16170.311   1.69746  -1.18734   111558.97
  16171.349   1.70501  -1.1875   111638.55
  16172.388   1.71338  -1.18756   111994.05
  16173.428   1.72261  -1.1877   112510.48
  16174.466   1.73486  -1.18798   113028.83
  16175.506   1.74804  -1.18796    113291.1
  16176.545   1.76263  -1.18805    113439.3
  16177.932   1.78284  -1.18805   113647.41
  16178.971   1.79684  -1.18787   113937.45
  16180.012   1.81013  -1.18805   114156.42
  16181.399   1.82526  -1.18824   114385.31
  16182.440   1.83349  -1.18811   114688.12
  16183.826   1.83998  -1.18848   114995.86
  16185.214   1.83922  -1.18862   115324.52
  16186.254   1.83382  -1.18874    115643.1
  16187.644   1.82113  -1.18904   115946.61
  16189.030   1.80639  -1.18933   116314.03
  16190.419   1.79337  -1.18958   116641.38
  16191.809   1.78425   -1.189902   116993.66
  16193.197   1.77879  -1.19001   117362.86
  16194.587   1.77586  -1.19017   117802.98
  16195.976   1.77318  -1.19031   118069.02
  16197.366   1.77  -1.1906   118466.99
  16198.755    1.765648  -1.19093   118885.88
  16200.493   1.75811  -1.19118    119330.7
  16201.884   1.75082  -1.19135   119710.44
  16203.274   1.74242  -1.19166    120117.1
  16205.013   1.7315  -1.192   120655.68
  16206.405   1.72478  -1.19216   121112.19
  16208.145   1.71848  -1.19256   121462.62
  16209.884   1.71539  -1.19267   121954.98
  16211.276   1.71507  -1.19285   122367.25
  16213.016   1.71665  -1.19301   122872.45
  16214.757    1.718356  -1.19322   123372.58
  16216.499   1.71897  -1.19353   123872.62
  16218.240   1.71876  -1.19368   124453.59
  16219.981   1.71948   -1.193949   124865.48
  16221.725   1.7223  -1.19411    125301.3
  16223.468   1.72759  -1.19445   125750.05
  16225.210   1.73464  -1.1948   126286.71
  16226.954   1.74224  -1.19503    126928.3
  16228.698   1.749   -1.195189    127342.8
  16230.792   1.75375  -1.19542   127680.23
  16232.535   1.75376  -1.19549   128042.59
  16234.281    1.750598  -1.19575   128365.87
  16236.376   1.74604  -1.19611   128540.08
  16238.122   1.74384  -1.19641    128882.2
  16240.217   1.74518  -1.19667   129222.25
  16242.313   1.74985  -1.19691   129920.22
  16244.061   1.75343  -1.19708   130588.12
  16246.159   1.75509  -1.19723   131683.94
  16248.257   1.75285  -1.19768   133005.67
  16250.354   1.74677  -1.19777   134212.34
  16252.454   1.73852  -1.1981   135365.94
  16254.553   1.7302  -1.19851   136393.44
  16256.653      1.7228  -1.19904   137093.87
  16258.753   1.71637  -1.19929   137815.23
  16260.855   1.71105  -1.19976   138321.52
  16262.957   1.70723  -1.19994   138690.72
  16265.059   1.70532   -1.200347   139264.86
  16267.162    1.704647  -1.20064   139739.91
  16269.616   1.70554  -1.20093   140103.87
  16271.719   1.70693  -1.20111   140707.78
  16274.174   1.70835  -1.20147   141494.59
  16276.280   1.70897  -1.20184   142372.34
  16278.736   1.70919  -1.20215   143537.02
  16280.844   1.70965    -1.20236   144619.59
  16283.301   1.71079  -1.20258   145604.11
  16285.760   1.71238  -1.20302   146528.55
  16288.220   1.71431  -1.20341   147337.91
  16290.328   1.71517  -1.20372    148053.2
  16292.790   1.71437  -1.20404   148909.41
  16295.252   1.71213  -1.20441   149716.53
  16297.715   1.71149  -1.20486   150548.59
  16300.179   1.71396  -1.20518   151445.56
  16302.994   1.7189  -1.20558   152226.47
  16305.459   1.72056  -1.20589   152990.28
  16307.925   1.71827   -1.206214   153964.03
  16310.392   1.71379  -1.20661    154825.7
  16313.211   1.70745  -1.20708    155492.3
  16315.680   1.70234  -1.20737   156390.81
  16318.148   1.69892  -1.20771   157214.25
  16320.972   1.69853  -1.20806   158061.61
  16323.442   1.70137  -1.2084   159173.91
  16326.268   1.70661  -1.20864   160015.11
  16329.092   1.7111  -1.20908   160646.23
  16331.564    1.712592  -1.20939    161678.3
  16334.393   1.71214   -1.209841   162584.28
  16337.221   1.7102  -1.2103   163661.17
  16340.050   1.70703  -1.21072      164575
  16342.881   1.70277  -1.21107   165530.75
  16345.713   1.69833  -1.21151   166352.42
  16348.544   1.69425  -1.21187   167252.02
  16351.378   1.69097  -1.21241   168333.53
  16354.211   1.68774   -1.212802   169127.98
  16357.047   1.68421  -1.21304   170000.34
  16360.238   1.68041  -1.21356   171020.62
  16363.076   1.67815  -1.21409   171904.84
  16365.914   1.67817  -1.2145   172856.97
  16369.107   1.68185  -1.21501   173838.03
  16371.948   1.68636  -1.21533   174743.02
  16375.146   1.69071  -1.21569   175699.92
  16377.989   1.69351  -1.21578   176697.75
  16381.188   1.69604  -1.21628    177624.5
  16384.389   1.69795  -1.21657   178558.17
  16387.234   1.69929  -1.21702   179611.77
  16390.438   1.69966  -1.21752    180589.3
  16393.641   1.69719  -1.21792   181660.73
  16396.848   1.69114  -1.21832   182613.09
  16400.055    1.684066  -1.21886   183628.39
  16403.262    1.679163  -1.21933   184351.61
  16406.471   1.6771  -1.21978   185390.73
  16409.684   1.67666  -1.22014    186348.8
  16412.895   1.67677  -1.22066   187285.78
  16416.107   1.67595  -1.22106   188234.69
  16419.320   1.67393  -1.22171   189128.52
  16422.895   1.67047  -1.22221   190172.27
  16426.111   1.66727  -1.22257   191254.95
  16429.332    1.666212  -1.22304   192279.55
  16432.908   1.66775   -1.223418   193392.08
  16436.129   1.66949  -1.224   194354.52
  16439.711   1.67131  -1.22443   195334.89
  16443.291   1.67304  -1.22494   196139.17
  16446.518   1.67471  -1.22551   197085.39
  16450.104    1.675583  -1.22602   198061.53
  16453.689   1.67479  -1.22643   198991.59
  16457.277   1.67346  -1.22678   200067.58
  16460.510   1.67283  -1.22718   201194.48
  16464.100   1.67137  -1.22763   202164.31
  16467.695    1.667847  -1.22842   203326.08
  16471.289   1.66257  -1.22873   204217.75
  16474.885   1.65852  -1.22929   205106.36
  16478.842   1.65618  -1.22975   206161.87
  16482.441   1.65525  -1.2303   207107.33
  16486.043   1.655  -1.23073    208295.7
  16489.646    1.653492  -1.23109      209267
  16493.611   1.65211  -1.23163    210265.2
  16497.217   1.65226  -1.23219   211204.36
  16500.826   1.65413  -1.23268   211939.42
  16504.797   1.65761  -1.23304   213184.41
  16508.406   1.66133  -1.2335   214126.31
  16512.381    1.664019  -1.23396   214990.14
  16516.357   1.66196  -1.23443   215768.91
  16519.975   1.65794  -1.23497   216595.58
  16523.953   1.65404  -1.23557   217506.19
  16527.936   1.65116  -1.23611   218522.72
  16531.920   1.64904  -1.23662   219431.17
  16535.906   1.64763  -1.23701   220271.55
  16539.531   1.64659   -1.237688   221214.84
  16543.520   1.64295  -1.2382   222650.06
  16547.875   1.63862  -1.23871    223559.2
  16551.867   1.63646  -1.23935   224257.27
  16555.863   1.63607  -1.23969   225072.25
  16559.861   1.63668  -1.24034   225986.17
  16563.859   1.63648  -1.24087      227296
  16567.863   1.63627  -1.24151   228262.77
  16572.230   1.63656  -1.24199   229315.45
  16576.234    1.637795   -1.242446   229977.05
  16580.607   1.64007  -1.24297   230962.58
  16584.617   1.64125  -1.24354   231682.03
  16588.992   1.64011  -1.24421   232400.41
  16593.008   1.6376   -1.244595    233280.7
  16597.387   1.63373   -1.245232   234107.94
  16601.406   1.63062  -1.24571   235078.08
  16605.793    1.628552  -1.24615   235510.14
  16610.182   1.62763  -1.2467   236698.14
  16614.570   1.62824  -1.2471   237674.05
  16618.963    1.628242  -1.24772   238719.89
  16622.992   1.62712  -1.24818   239789.66
  16627.389   1.62479  -1.24893   240648.33
  16631.789   1.62174  -1.24939   241064.94
  16636.191   1.61796  -1.25009   242009.47
  16640.963   1.61608  -1.2509   242948.92
  16645.369   1.61483  -1.25133   243522.31
  16649.779   1.61394  -1.25188   244218.61
  16654.189   1.61383  -1.25258   245097.83
  16658.604   1.61513  -1.2532   246154.98
  16663.389   1.61736  -1.25369   246519.05
  16667.809   1.61862  -1.2545   247593.05
  16672.598   1.61797  -1.25507   248397.97
  16677.021   1.61666  -1.25562    249035.8
  16681.818   1.61407  -1.25634   249669.56
  16686.246   1.61028  -1.25682   250526.25
  16691.047   1.60681  -1.25743   251169.86
  16695.480   1.60522   -1.258072   251753.39
  16700.287   1.60399   -1.258583   252348.86
  16705.096   1.60309  -1.25928   253064.23
  16709.908   1.60241  -1.26001   253612.53
  16714.723   1.60188  -1.26077   253670.77
  16719.170   1.59873  -1.26122   254898.91
  16723.990   1.59658  -1.26176   255682.98
  16728.813   1.59594  -1.26223   256211.98
  16733.639   1.59604  -1.26276   256537.91
  16738.840   1.5969  -1.2635   257111.75
  16743.670   1.59698  -1.2639   257727.52
  16748.506   1.59602  -1.26431    258378.2
  16753.342   1.59369  -1.26493   259062.81
  16758.182   1.59155  -1.26547   259788.34
  16763.396   1.59028  -1.26611    260420.8
  16768.244   1.58958  -1.26669   260951.19
  16773.094   1.58861  -1.26732   261770.48
  16778.318   1.58647   -1.267972   262207.72
  16783.174   1.58444  -1.2687   262601.87
  16788.404    1.582421  -1.26957   263278.94
  16793.641   1.58023  -1.27008   263775.94
  16798.504   1.5784  -1.27086   264252.87
  16803.746   1.57705  -1.27145   264416.72
  16808.990   1.57656   -1.272098   264908.47
  16813.863   1.57561    -1.27279   265003.16
  16819.115     1.57351  -1.27301   264267.78
  16824.369   1.57211  -1.27352   266685.31
  16829.627   1.57169    -1.27435   267080.78
  16834.887   1.57161  -1.27488   267148.16
  16840.152   1.57024  -1.27552   267787.47
  16845.420   1.5681  -1.27655   268238.72
  16850.691   1.56592  -1.27713   268641.84
  16855.965   1.56495   -1.277803   268615.94
  16861.244   1.56507  -1.2782   268862.94
  16866.525    1.565063  -1.27875   269000.87
  16872.188   1.56436  -1.27963   269108.72
  16877.477   1.56224  -1.28019   269991.47
  16882.768    1.559329  -1.28085   270600.16
  16888.441   1.55698  -1.2815   270751.78
  16893.740   1.55522  -1.28219   270875.31
  16899.041   1.55284   -1.282753   271208.78
  16904.727   1.55009  -1.28334   270896.19
  16910.416   1.54903  -1.28406    270035.5
  16915.729   1.54844  -1.28447   270222.72
  16921.424   1.54907  -1.28535   270822.87
  16926.744   1.54934  -1.28586   271232.97
  16932.447   1.54834  -1.28654   271060.97
  16938.154   1.5465  -1.28767   271513.87
  16943.865    1.545443  -1.28877   271386.72
  16949.582   1.54468  -1.28963    271563.5
  16955.301    1.543181  -1.29044   271523.19
  16960.643   1.54146  -1.29103   271643.81
  16966.371   1.53947  -1.29155   271589.37
  16972.100   1.5383  -1.29206   271690.81
  16977.836   1.53751  -1.29281   271554.22
  16983.957   1.53566  -1.29334   271595.53
  16989.699   1.53386  -1.29402   271758.75
  16995.447   1.53284  -1.2948   271470.91
  17001.197    1.530827  -1.29541      271510