File: data/Sr/SrO_rt_01.xdi
# XDI/1.0 EXAFS Data Collector 1.1 AD.RGN
# Column.1: energy eV
# Column.2: mutrans
# Column.3: mufluor
# Column.4: murefer
# Column.5: i0
# Beamline.name: SSRL 4-3
# Detector.I0: N2 15cm
# Detector.I1: N2+Ar 30cm
# Detector.If: Ar   (Lytle detector, using Rb Filter)
# Detector.I2: Ar
# Element.edge: K
# Element.symbol: Sr
# Mono.d_spacing: 1.920128
# Mono.name: Si(220)
# Mono.notes: (?) unfocussed, detuned 50%, clockwise at E=17000eV
# Sample.formula: SrO
# Sample.name: strontium oxide
# Sample.prep: powder
# Sample.reference: SrCO3
# Sample.temperature: room temperature
# Scan.start_time: 1995-06-14 19:09:21
# ///
#    Note: mono d_spacing is nominal!
#-------------
#   energy   mutrans    mufluor     murefer      i0
  15699.933  -1.62723  0.382814   1.07877   203845.59
  15710.044  -1.62968   0.3788912   1.07749   202585.59
  15719.844   -1.632145  0.375697   1.0762   201361.59
  15729.982  -1.63461  0.37123   1.07491   200298.59
  15740.136  -1.63719  0.368559   1.07357   198863.59
  15749.973  -1.63966   0.3646628   1.07239   197727.59
  15760.152  -1.6423  0.359983   1.07105   193822.59
  15770.016  -1.6447  0.355814   1.06994   195219.59
  15779.891  -1.64709  0.351354    1.068593   194504.59
  15790.109  -1.64962  0.346628   1.06722   193065.59
  15800.011  -1.65212  0.342877   1.06599   191832.59
  15809.925  -1.65454   0.3384568    1.064721   190697.59
  15819.854   -1.657051  0.335825   1.06335   189190.59
  15830.124   -1.659495  0.32995   1.06214   187976.59
  15840.076  -1.66197  0.327003   1.06086   186811.59
  15850.042  -1.66442  0.323614     1.05954   185612.59
  15860.021  -1.66686  0.320076   1.05828   184352.59
  15870.012  -1.6693  0.315312   1.05705   183208.59
  15880.018  -1.67175  0.312028   1.05573   181909.59
  15890.033  -1.6742  0.309587   1.05444   180717.59
  15900.063  -1.67661  0.305901   1.05323   179400.59
  15910.108  -1.679  0.303626   1.05189   178314.59
  15920.164  -1.68131  0.300582   1.05058   176866.59
  15929.896  -1.68367  0.297871   1.04938   175807.59
  15939.978  -1.6861  0.296313   1.04809   174774.59
  15950.073  -1.6884  0.294984   1.04684   173405.59
  15959.844  -1.69066  0.293715   1.04558   172101.59
  15969.964  -1.69303  0.292134   1.04425   170811.59
  15980.097  -1.69533  0.292139   1.043   169559.59
  15989.906  -1.69751  0.292909     1.04176   168471.59
  16000.064  -1.69978  0.29429   1.04047   167317.59
  16009.897  -1.70192   0.2969778   1.03925   166163.59
  16020.082  -1.70408  0.299394   1.03801   164842.59
  16029.942  -1.70619  0.30341   1.03674   163837.59
  16040.152  -1.7081  0.310004   1.03557   162481.59
  16050.036  -1.70989  0.318232   1.0343   161158.59
  16059.933  -1.71148  0.330891    1.033106   160200.59
  16069.841  -1.71282   0.3473535   1.03198   158892.59
  16080.104  -1.71377  0.372522    1.030809   157437.59
  16090.039  -1.71386  0.408622   1.02977   156310.59
  16099.984  -1.71254  0.467901   1.02884   155376.59
  16109.943  -1.70791  0.576898   1.02823   153978.59
  16119.917  -1.693  0.839546   1.02872   152783.59
  16121.293  -1.68996  0.888509    1.028941   152646.59
  16122.670  -1.68563  0.957318   1.02925   152327.59
  16123.702  -1.6817   1.02042    1.029576   152438.59
  16125.079  -1.67471     1.13026   1.03014   152159.59
  16126.112  -1.66798   1.23398   1.03076   151953.59
  16127.490  -1.65538   1.42178   1.03189   151769.59
  16128.867  -1.63613   1.7109   1.03378   151742.59
  16129.901  -1.61523   2.01832   1.03583   151704.59
  16131.278  -1.56916   2.67852   1.0404   151394.59
  16132.657  -1.50108   3.59327   1.04766   151239.59
  16133.690  -1.43713   4.39654   1.05481   151172.59
  16135.069  -1.32993   5.6152   1.0671   151099.59
  16136.104    -1.24355   6.50173   1.07706   150803.59
  16137.483  -1.11631   7.68187   1.09202   150519.59
  16138.861  -0.9822614   8.83021   1.10931   150436.59
  16139.897   -0.878348   9.24233   1.12337   150250.59
  16141.276 -0.736763   9.24282   1.14169   150242.59
  16142.657 -0.615904   9.25098   1.15516   150109.59
  16143.692 -0.552327   9.24513   1.15996   150204.59
  16145.073 -0.508283   9.27307   1.15892   149751.59
  16146.108 -0.511527   9.28166   1.15403   149612.59
  16147.490 -0.551097   9.2873   1.1441   149521.59
  16148.871 -0.607031   9.29324   1.13353   149425.59
  16149.907 -0.646542   9.32299   1.12638   148948.59
  16151.289 -0.692533   9.32173    1.118084   148968.59
  16152.670 -0.725991   9.33276    1.112419   148792.59
  16153.707 -0.745957    9.356989    1.109501   148406.59
  16155.090 -0.771444    9.366991   1.10691   296495.19
  16155.779 -0.782559    9.368949    1.106007   296432.16
  16156.473 -0.794186    9.368993   1.10525   296502.06
  16157.162 -0.806174     9.37613   1.10469   296347.91
  16157.854 -0.818733   9.38248   1.10415   296290.69
  16158.547 -0.83115   9.39048   1.10377   296181.41
  16159.237 -0.843133   9.39345   1.10349   296267.06
  16160.274 -0.860346   9.4035   1.1034   296201.66
  16160.968 -0.868713   9.40032   1.10359   296559.19
  16161.659 -0.875907   9.40813   1.10391   296623.66
  16162.695 -0.882969   9.42602   1.10481   296446.06
  16163.389 -0.884692   9.43719   1.10552   296517.37
  16164.426 -0.8837   9.44833   1.10692   296546.66
  16165.465 -0.878831   9.4622   1.1082   296499.87
  16166.157 -0.874319   9.47022   1.10898   296687.03
  16167.195 -0.865643   9.50633   1.11028   296039.09
  16168.234 -0.856237   9.52257   1.1112   296050.12
  16169.271 -0.846209   9.52372   1.11205   296582.09
  16170.311 -0.835797   9.52407     1.11303      297175
  16171.349 -0.825585   9.53913   1.11419   297344.81
  16172.388 -0.815258   9.54217   1.11555   297923.59
  16173.428 -0.804892   9.51793   1.11687   299394.28
  16174.466  -0.7946992   9.51294    1.118239   300297.94
  16175.506 -0.785486   9.52521   1.11941   300657.53
  16176.545 -0.776824   9.52876   1.12044   301363.03
  16177.932 -0.766565   9.54541    1.121447    301688.5
  16178.971 -0.760171   9.56233   1.12196   302039.87
  16180.012 -0.754737   9.56969   1.12206   302692.22
  16181.399 -0.749506   9.56849   1.12187   303685.47
  16182.440 -0.74737   9.57874   1.12148   304350.69
  16183.826 -0.746562   9.6024   1.12066   304587.81
  16185.214 -0.747938    9.610335   1.11958   305393.91
  16186.254 -0.749912   9.62799   1.11884   305888.91
  16187.644 -0.753433   9.62115   1.1176   307232.87
  16189.030 -0.757368   9.65516   1.11611   307273.75
  16190.419 -0.761456   9.66054   1.11451   308294.59
  16191.809 -0.76608   9.66001   1.11293   309503.34
  16193.197 -0.771505   9.68342   1.11146   310014.03
  16194.587 -0.778137    9.691943   1.11007   310999.69
  16195.976 -0.786065   9.70983    1.108951   311717.25
  16197.366 -0.794959   9.723   1.10777   312653.75
  16198.755 -0.804424   9.73453   1.10687   313640.22
  16200.493 -0.816504   9.74061   1.10574   314835.59
  16201.884 -0.825107   9.76746   1.10512   315391.91
  16203.274  -0.8327014   9.78885   1.10463   316156.16
  16205.013 -0.840433   9.80004   1.10426   317328.34
  16206.405 -0.844722   9.80697   1.10431    318639.5
  16208.145 -0.848303   9.8195   1.1046   319813.56
  16209.884 -0.849735   9.83111   1.10505   321036.56
  16211.276 -0.849579   9.84876   1.1055    322090.5
  16213.016 -0.848151   9.87005   1.1061   323051.37
  16214.757 -0.84556   9.88937   1.10653   324087.19
  16216.499 -0.842294   9.9094   1.10686   325128.94
  16218.240 -0.838717    9.919701   1.10693   326511.66
  16219.981 -0.835056   9.93756   1.10693   327651.28
  16221.725 -0.831352   9.9564   1.10694   328824.84
  16223.468 -0.827873   9.98045   1.10674   329861.34
  16225.210 -0.824637   9.99955   1.1066   331090.78
  16226.954 -0.821878   10.0231   1.10643   332205.16
  16228.698 -0.819964   10.0548   1.10625   333052.47
  16230.792 -0.819114   10.0992   1.10619   333554.72
  16232.535 -0.819527   10.1433   1.10621   334119.87
  16234.281 -0.82072   10.178   1.10614      334999
  16236.376  -0.8226928   10.2033   1.10608   336245.06
  16238.122 -0.824283   10.2092   1.10572   338020.06
  16240.217 -0.826045    10.22188   1.10515      339559
  16242.313 -0.827798   10.2226   1.10437   341493.87
  16244.061 -0.829418    10.21955    1.103669   343849.69
  16246.159 -0.831709   10.2136   1.10271   346054.41
  16248.257 -0.834131   10.2009   1.10192   348963.09
  16250.354 -0.836773   10.1885   1.10104   351520.72
  16252.454 -0.839524   10.1851   1.10024   353720.28
  16254.553 -0.842353   10.1711   1.09908   355362.78
  16256.653 -0.8454   10.1488   1.099   357527.19
  16258.753 -0.848708   10.1278   1.099   358663.56
  16260.855  -0.8519584   10.1083   1.09893   359599.87
  16262.957 -0.855175   10.0925   1.09819   360648.09
  16265.059 -0.858371   10.0759   1.09782   362690.28
  16267.162 -0.861699   10.0564    1.097509   364137.41
  16269.616 -0.865457   10.0394   1.09725   366093.44
  16271.719 -0.868251   10.0233   1.09701   367594.44
  16274.174 -0.870641   10.0184   1.09679   369074.34
  16276.280 -0.871425   10.0202   1.09657   371510.22
  16278.736 -0.871066   10.033   1.09649      373794
  16280.844  -0.8699687   10.0547   1.09654   375494.75
  16283.301 -0.86798   10.0774   1.09657   378256.41
  16285.760 -0.866007   10.1028   1.09654   380003.03
  16288.220 -0.864283   10.123   1.09636   381962.56
  16290.328 -0.863392    10.13722    1.096075   383831.06
  16292.790 -0.862641   10.1562   1.09559   385582.47
  16295.252 -0.86202   10.17   1.0951   387750.84
  16297.715 -0.861385   10.1838    1.094652   389375.12
  16300.179  -0.8606475   10.2008   1.0943   391176.34
  16302.994 -0.860339   10.2122   1.0942   393042.53
  16305.459   -0.861003    10.21762   1.09409   395223.62
  16307.925 -0.862882    10.21123    1.093903   397104.69
  16310.392 -0.865857   10.1975   1.09364   398786.66
  16313.211 -0.869704   10.1776   1.09331   400873.56
  16315.680 -0.872491   10.1671   1.09299   402342.41
  16318.148 -0.874297   10.1615   1.09255   404815.22
  16320.972 -0.875419   10.1645   1.09206   406852.94
  16323.442 -0.875893   10.168     1.09152   408693.59
  16326.268 -0.876189   10.178   1.09091   411111.19
  16329.092 -0.876551   10.1854   1.09032   412921.72
  16331.564 -0.87697   10.1938   1.08987   414622.22
  16334.393 -0.877468   10.2009   1.08934   417281.62
  16337.221 -0.878349   10.2046   1.08885   419186.97
  16340.050  -0.8795592   10.2039   1.08835   421014.25
  16342.881 -0.881191   10.2047   1.0878   422987.47
  16345.713  -0.8832928    10.20018   1.08738   425750.62
  16348.544 -0.885755   10.189   1.08701   426664.72
  16351.378 -0.888192   10.1821   1.08674   429154.75
  16354.211 -0.890454   10.1732   1.08651   431750.72
  16357.047 -0.892436   10.1715    1.086333   433355.62
  16360.238  -0.8943293   10.1656   1.08616   435542.47
  16363.076 -0.895575   10.1665   1.08602   438044.25
  16365.914 -0.896271   10.1746   1.08584   439868.97
  16369.107 -0.896435   10.1883   1.08548   441868.62
  16371.948 -0.896307   10.1973    1.085088   444925.22
  16375.146 -0.896313   10.2133   1.08466   446101.75
  16377.989  -0.8965682   10.2201   1.08418   448291.22
  16381.188 -0.89722   10.2286   1.08356   450107.62
  16384.389 -0.898066   10.2342   1.08298   452498.97
  16387.234  -0.8987955   10.2448   1.08256   454479.22
  16390.438 -0.899633   10.2487   1.082   456829.44
  16393.641 -0.900532   10.2532   1.08151   458630.59
  16396.848 -0.901699   10.2591   1.08103   460601.69
  16400.055 -0.903034   10.2623   1.08065   463127.72
  16403.262 -0.904683    10.26162   1.08019   464977.66
  16406.471 -0.906642   10.2584   1.07984   467195.56
  16409.684 -0.908778   10.2552   1.07943   469608.41
  16412.895 -0.910992    10.25042   1.07902   471129.16
  16416.107  -0.9131631   10.2461    1.078641   473805.87
  16419.320 -0.91525   10.2423   1.07818   476440.53
  16422.895 -0.917144   10.2413   1.0776   478589.09
  16426.111 -0.918428   10.246   1.07713   481171.62
  16429.332 -0.919377   10.2527   1.07663   483484.09
  16432.908 -0.920306    10.25842   1.0761   485610.47
  16436.129 -0.920929   10.2659   1.07568   487924.81
  16439.711 -0.921729   10.2729   1.07516   489416.06
  16443.291 -0.922597    10.28145   1.07466   492003.28
  16446.518 -0.923572   10.2897   1.0743   493094.41
  16450.104 -0.924552   10.294   1.07391    495083.5
  16453.689  -0.9256216   10.3002   1.07355    497331.5
  16457.277 -0.926801   10.3039   1.0732   499521.47
  16460.510 -0.928015   10.3086   1.07286   501890.34
  16464.100 -0.929455   10.3119   1.07247   504328.19
  16467.695 -0.931142   10.314   1.07193   505254.94
  16471.289 -0.932837   10.3168   1.07146   508108.66
  16474.885 -0.934478   10.317   1.07101   509736.28
  16478.842 -0.936105   10.3178   1.07045   511903.84
  16482.441 -0.937402   10.3245    1.069985   514322.37
  16486.043 -0.938676   10.3279   1.0695   515082.81
  16489.646 -0.939792   10.3326   1.06897   517981.19
  16493.611 -0.940817   10.3428   1.06838    519300.5
  16497.217 -0.941654   10.3491   1.06793   521962.78
  16500.826 -0.942523   10.358   1.06744   523083.97
  16504.797 -0.943517   10.3681   1.06692   524902.12
  16508.406 -0.944515   10.375   1.06647   526811.19
  16512.381 -0.945831   10.3802   1.06597   529106.19
  16516.357 -0.94734   10.3841   1.06538   530839.12
  16519.975  -0.9488365   10.387   1.065      533119
  16523.953  -0.9505686   10.3885   1.06444   534377.81
  16527.936 -0.952438   10.39   1.06398   536897.56
  16531.920 -0.954267   10.3924   1.06345   537933.25
  16535.906 -0.955971   10.3955   1.06292   540317.87
  16539.531 -0.957416   10.3974   1.06256   541986.44
  16543.520 -0.958973   10.4006    1.061976   543578.94
  16547.875 -0.960633   10.4045   1.06137   544467.37
  16551.867 -0.962067   10.411   1.06086   545795.75
  16555.863 -0.963566   10.4137   1.06035   546756.06
  16559.861  -0.9650159   10.4221    1.059812   549888.31
  16563.859 -0.966283   10.4233   1.05932    551762.5
  16567.863 -0.967597   10.4297   1.05881   552916.62
  16572.230 -0.968972   10.4414   1.0582   554213.69
  16576.234   -0.970177   10.4455   1.0577   555641.69
  16580.607 -0.971549   10.4541   1.05711   557100.62
  16584.617  -0.9728071   10.4592   1.05658    559284.5
  16588.992 -0.974359   10.465   1.05606   560070.31
  16593.008 -0.975878   10.4693   1.05547   562142.06
  16597.387 -0.977528   10.473   1.05493   562720.75
  16601.406 -0.979065   10.4765   1.05433   564891.37
  16605.793 -0.980744   10.4819    1.053756   565958.94
  16610.182 -0.982404   10.4871   1.05326   567893.37
  16614.570 -0.983996   10.4887   1.05266   569357.81
  16618.963 -0.985633   10.4951   1.05206   570897.19
  16622.992 -0.987127   10.5006   1.05154    572082.5
  16627.389 -0.988789   10.5057   1.05099   572941.75
  16631.789 -0.990419   10.5097    1.050318   573600.94
  16636.191  -0.9920545   10.5148   1.04981   575545.06
  16640.963 -0.993817   10.5199   1.04914   576065.06
  16645.369 -0.995353   10.5235   1.04857   577294.06
  16649.779 -0.996835   10.53   1.04802      579009
  16654.189 -0.998289   10.535   1.04742   580996.87
  16658.604 -0.999789     10.5414   1.04688   581871.69
  16663.389  -1.00148    10.55126   1.04628   581684.37
  16667.809  -1.00303   10.5544   1.04578   582755.06
  16672.598  -1.00482   10.5606   1.0451   583446.69
  16677.021   -1.006467   10.5631   1.04456   585229.25
  16681.818  -1.00833   10.5681   1.04387   585318.69
  16686.246  -1.00996   10.5715   1.0432   587045.12
  16691.047  -1.01178   10.5752   1.04258    587280.5
  16695.480  -1.01329   10.5794   1.04198   589087.81
  16700.287  -1.01498   10.585   1.04143      589360
  16705.096  -1.01665   10.5893   1.04078   590600.19
  16709.908  -1.0183   10.5938   1.04017   589756.31
  16714.723  -1.02014   10.6013   1.03946   591189.31
  16719.170  -1.02166   10.609   1.03894   592541.31
  16723.990  -1.02328   10.6133   1.03837   593841.25
  16728.813  -1.02493   10.6193   1.03769   593990.06
  16733.639  -1.02655   10.6246   1.03712   595068.87
  16738.840  -1.0283   10.6317    1.036422   595062.62
  16743.670  -1.0299   10.6373   1.03584   595126.25
  16748.506   -1.031574   10.641   1.03522   596119.87
  16753.342   -1.033322   10.6491   1.03465   597025.44
  16758.182  -1.035   10.6542   1.03404   597652.87
  16763.396  -1.03678    10.65953   1.03339   598396.31
  16768.244  -1.03849   10.6642   1.03279   598568.62
  16773.094  -1.04018   10.6682   1.03215   600031.94
  16778.318  -1.042   10.6769   1.03149   600404.12
  16783.174  -1.04362   10.682   1.03083   601034.31
  16788.404  -1.04548   10.6854    1.030123   600681.44
  16793.641  -1.04727   10.6922   1.02947   601492.44
  16798.504  -1.04893   10.6951   1.02887   601652.44
  16803.746  -1.05071   10.7027   1.02823   601228.31
  16808.990  -1.05248   10.7085   1.02756   600991.19
  16813.863  -1.05379   10.7124   1.02706   597797.94
  16819.115  -1.05608   10.7235   1.02619   601123.69
  16824.369  -1.05755   10.7272   1.02567   603400.31
  16829.627  -1.05934   10.7337   1.02502   602741.94
  16834.887  -1.06109   10.7388   1.02438   603523.44
  16840.152  -1.06289   10.7453   1.02363   603171.94
  16845.420  -1.06469   10.7521   1.02298   602065.31
  16850.691   -1.066418   10.7562   1.02243   601909.62
  16855.965  -1.06816   10.7623   1.02181   601800.94
  16861.244  -1.06989   10.7667   1.02114   602359.12
  16866.525  -1.07164   10.774   1.02051   601612.31
  16872.188  -1.07352   10.7797   1.01982   600699.37
  16877.477  -1.07529   10.7859   1.01918   601017.37
  16882.768  -1.07699   10.7908   1.01856   601084.37
  16888.441  -1.07889   10.7972   1.01782   600637.25
  16893.740  -1.08067   10.8027   1.01721   600389.12
  16899.041  -1.0824   10.8087   1.01656   599952.87
  16904.727  -1.08423   10.8138   1.01587   599337.56
  16910.416   -1.086063    10.81846   1.01515   598149.25
  16915.729  -1.08773   10.8289   1.01451   598843.81
  16921.424  -1.08962   10.8322   1.01387   598472.31
  16926.744  -1.09129    10.83977   1.01326   598171.81
  16932.447  -1.09316   10.8439   1.01256   596846.19
  16938.154  -1.09498   10.8498   1.01195    595953.5
  16943.865  -1.09687   10.8563   1.01132   595251.81
  16949.582  -1.09872   10.8616   1.01061      594055
  16955.301  -1.1006   10.867   1.00994   592929.12
  16960.643  -1.10228   10.8726    1.009278   592928.19
  16966.371  -1.10419   10.8765   1.00864   591663.25
  16972.100  -1.106   10.8862   1.00797   590712.19
  16977.836  -1.10782   10.8923   1.00732   589716.06
  16983.957  -1.10979   10.8978   1.00662   590714.87
  16989.699   -1.111598   10.9024   1.00594   588861.69
  16995.447   -1.113498   10.9085   1.00528   587758.37
  17001.197  -1.1153   10.9139   1.00462      585658