File: data/Sr/SrO_rt_03.xdi
# XDI/1.0 EXAFS Data Collector 1.1 AD.RGN
# Column.1: energy eV
# Column.2: mutrans
# Column.3: mufluor
# Column.4: murefer
# Column.5: i0
# Beamline.name: SSRL 4-3
# Detector.I0: N2 15cm
# Detector.I1: N2+Ar 30cm
# Detector.If: Ar   (Lytle detector, using Rb Filter)
# Detector.I2: Ar
# Element.edge: K
# Element.symbol: Sr
# Mono.d_spacing: 1.920128
# Mono.name: Si(220)
# Mono.notes: (?) unfocussed, detuned 50%, clockwise at E=17000eV
# Sample.formula: SrO
# Sample.name: strontium oxide
# Sample.prep: powder
# Sample.reference: SrCO3
# Sample.temperature: room temperature
# Scan.start_time: 1995-06-14 19:09:21
# ///
#    Note: mono d_spacing is nominal!
#-------------
#   energy   mutrans    mufluor     murefer      i0
  15699.933  -1.62658  0.376403   1.07704   189607.59
  15710.044  -1.62907  0.373904   1.0758   188197.59
  15719.844  -1.63157  0.369719   1.0745   186914.59
  15729.982    -1.63417  0.366105   1.07313   185629.59
  15740.136  -1.6367  0.362784   1.07179   184445.59
  15749.973  -1.63917  0.359751   1.07051   183012.59
  15760.152  -1.6418  0.355745   1.06915   179622.59
  15770.016  -1.64423  0.35066   1.06806   180841.59
  15779.891  -1.64663  0.347562   1.06661   179846.59
  15790.109   -1.649261  0.342565   1.06527   178765.59
  15800.011  -1.65176  0.339205   1.06392   177570.59
  15809.925  -1.65423  0.334991   1.06266   176401.59
  15819.854  -1.65668   0.3316546   1.0614   175112.59
  15830.124  -1.65927  0.32747    1.060044   173847.59
  15840.076  -1.66175  0.323672   1.05876   172686.59
  15850.042  -1.6642  0.320561   1.05745   171464.59
  15860.021  -1.66661  0.316327   1.05616   170323.59
  15870.012  -1.66906   0.3127555   1.05486   169128.59
  15880.018  -1.6715   0.3096701   1.05355   167797.59
  15890.033  -1.67395   0.3065234   1.05228   166802.59
  15900.063   -1.676339  0.303915   1.05097   165516.59
  15910.108  -1.67878  0.301191   1.04967   164310.59
  15920.164  -1.68122  0.298395   1.04841   163246.59
  15929.896  -1.68356  0.296834   1.04714   161992.59
  15939.978  -1.68595  0.294869   1.04585   160772.59
  15950.073  -1.68834  0.293528   1.04465   159650.59
  15959.844  -1.69058  0.292472   1.04331   158414.59
  15969.964  -1.69303  0.291801   1.04199   157072.59
  15980.097   -1.695265  0.29131   1.04074   155991.59
  15989.906   -1.697502  0.292146   1.03944   154737.59
  16000.064  -1.69975  0.292535   1.03824   153680.59
  16009.897   -1.701933  0.294919   1.03692   152485.59
  16020.082  -1.70405  0.29813   1.03575   151349.59
  16029.942  -1.7062  0.302789   1.03436   150034.59
  16040.152  -1.70812  0.309721   1.03324   148872.59
  16050.036  -1.70992   0.3181777   1.03198   147929.59
  16059.933  -1.71156  0.329725   1.0308   146597.59
  16069.841  -1.71287  0.347222   1.02972   145560.59
  16080.104  -1.71383  0.371646   1.02846   144365.59
  16090.039  -1.71392  0.407559   1.02736   143051.59
  16099.984  -1.71263  0.467365   1.02648   141869.59
  16109.943  -1.70806  0.575212    1.025897   140850.59
  16119.917  -1.69342  0.834847   1.02641   139650.59
  16121.293  -1.69041  0.885625   1.02656   139695.59
  16122.670   -1.686195  0.954149   1.02689   139509.59
  16123.702   -1.682423   1.01323   1.02718   139474.59
  16125.079  -1.67552   1.12143   1.02782   139339.59
  16126.112  -1.66898   1.22194   1.02834   139149.59
  16127.490  -1.65677   1.40765   1.0295   138660.59
  16128.867  -1.63823   1.6864   1.03124   138598.59
  16129.901  -1.61803   1.98508   1.03321   138595.59
  16131.278  -1.57337   2.62699   1.03764   138450.59
  16132.657  -1.5066   3.52955   1.04462   138054.59
  16133.690  -1.4437   4.32527   1.05166   137927.59
  16135.069  -1.33839   5.53097   1.06377   138040.59
  16136.104  -1.25249   6.42557   1.07367   137800.59
  16137.483  -1.12475   7.61751   1.08851   137981.59
  16138.861 -0.990692   8.76518     1.10575   137709.59
  16139.897 -0.887397   9.60224   1.11981   137679.59
  16141.276 -0.745473   10.1011    1.138372   137456.59
  16142.657 -0.621968   10.114   1.15219   137281.59
  16143.692 -0.555626   10.116   1.15759   137254.59
  16145.073 -0.507555   10.1198   1.15727   137202.59
  16146.108 -0.508295   10.135   1.15259   136997.59
  16147.490 -0.546231   10.1374   1.14273   136964.59
  16148.871 -0.601854   10.1541   1.13209   136739.59
  16149.907 -0.642253   10.1767   1.12475   136435.59
  16151.289 -0.688964   10.1764   1.11635   136438.59
  16152.670 -0.723585    10.20591   1.11032   136044.59
  16153.707 -0.74385   10.2004   1.1074   136117.59
  16155.090 -0.769295    10.22813   1.10465   271568.19
  16155.779 -0.780341   10.2338   1.10382   271332.16
  16156.473 -0.792205   10.1566   1.10305   271047.06
  16157.162 -0.804534   10.0645   1.10234   270958.91
  16157.854 -0.816906    9.971855   1.10184   271118.69
  16158.547 -0.829257   9.88355   1.10142   270740.41
  16159.237  -0.8413709   9.79098   1.10114   270787.06
  16160.274 -0.858843   9.66306   1.101   270758.66
  16160.968 -0.867485   9.60043   1.10116   270996.19
  16161.659 -0.874965   9.55409   1.1015   271200.66
  16162.695  -0.8825015   9.50202   1.10241   271432.06
  16163.389 -0.884471   9.49781   1.10306   271286.37
  16164.426 -0.883709   9.51338   1.10442   271482.66
  16165.465 -0.879077   9.55809   1.10579   271386.87
  16166.157  -0.8747761   9.59272   1.10655   271311.03
  16167.195 -0.866169   9.66206   1.10782   270464.09
  16168.234 -0.856749   9.74358   1.1087   270710.12
  16169.271 -0.846778   9.82467   1.10965   270942.09
  16170.311 -0.836405   9.91483   1.11058      271313
  16171.349 -0.826072   9.99987    1.111715   272053.81
  16172.388 -0.81558   10.0763   1.11305   272922.59
  16173.428 -0.805195   10.156   1.11442   273886.28
  16174.466 -0.795127   10.2276   1.11584   274694.94
  16175.506 -0.785838   10.295   1.11699   274823.53
  16176.545 -0.777108   10.3609   1.11801   275393.03
  16177.932 -0.766692   10.4318   1.11908    275741.5
  16178.971 -0.76021   10.4712   1.11952   275931.87
  16180.012 -0.754644   10.46   1.11975   277010.22
  16181.399 -0.749269     10.4894   1.11956   277093.47
  16182.440 -0.746993     10.4938   1.11909   277860.69
  16183.826 -0.746196   10.494   1.11826   278752.81
  16185.214 -0.747418   10.5051   1.11728   279437.91
  16186.254 -0.749361   10.5318   1.11654   279746.91
  16187.644 -0.752852   10.5497   1.11528   280289.87
  16189.030 -0.756797   10.5445   1.11388   281201.75
  16190.419 -0.760883   10.5254   1.11237   282215.59
  16191.809 -0.765423   10.497   1.11068   282612.34
  16193.197 -0.770765    10.46396    1.109145   283025.03
  16194.587 -0.77738     10.4198   1.10781   283714.69
  16195.976 -0.785246   10.3684   1.10669   284507.25
  16197.366 -0.794212   10.3054   1.10552   285632.75
  16198.755 -0.80358   10.2368    1.104512   286488.22
  16200.493 -0.815685   10.1528    1.103463   287511.59
  16201.884 -0.824365   10.0939   1.10269   288118.91
  16203.274 -0.832036   10.0419   1.10221   288865.16
  16205.013 -0.839962   9.98838   1.10195   290078.34
  16206.405 -0.844389   9.95949   1.10185    290962.5
  16208.145 -0.848049   9.94375   1.1021   291633.56
  16209.884 -0.849567   9.93559   1.10263   292448.56
  16211.276 -0.849534   9.94398   1.10308    293666.5
  16213.016 -0.848045   9.96087   1.10364   294823.37
  16214.757 -0.845513   9.98531   1.10406   295759.19
  16216.499 -0.84231   10.0165    1.104399   296574.94
  16218.240 -0.83869   10.0492   1.10455   298081.66
  16219.981 -0.834993   10.0866   1.10457   298967.28
  16221.725 -0.831342   10.121   1.10448   299841.84
  16223.468   -0.827806   10.1535   1.10441   300931.34
  16225.210 -0.824564   10.1839    1.104232   301515.78
  16226.954 -0.821823   10.2034   1.10401   302349.16
  16228.698 -0.81978    10.22768   1.10394   303171.47
  16230.792 -0.81887   10.2371   1.10388   303322.72
  16232.535 -0.819263   10.2396   1.10383   304261.87
  16234.281 -0.820446   10.2397   1.10375      305298
  16236.376 -0.822351   10.234   1.10355   306501.06
  16238.122 -0.823995   10.2311   1.10328   307700.06
  16240.217 -0.825724   10.2298   1.10271      309582
  16242.313 -0.827474   10.2278   1.10195   311690.87
  16244.061 -0.829085   10.2274   1.10119   313526.69
  16246.159  -0.8314452   10.2198   1.10025   315321.41
  16248.257 -0.833811   10.2125   1.09904   318058.09
  16250.354  -0.8364536   10.2014   1.09903   320120.72
  16252.454 -0.839252   10.19   1.09793   321826.28
  16254.553 -0.842133   10.1708   1.09727   323475.78
  16256.653 -0.845219   10.1519   1.09674   325252.19
  16258.753 -0.848408   10.1289   1.09627   327001.56
  16260.855 -0.851663   10.1072   1.09584   327941.87
  16262.957 -0.854881   10.0922   1.09555   328991.09
  16265.059 -0.858052   10.0778   1.09533   330463.28
  16267.162 -0.861415   10.0611   1.09498   331738.41
  16269.616 -0.865193   10.0408   1.09467   333054.44
  16271.719 -0.868026   10.0313   1.09449   334576.44
  16274.174 -0.870396   10.0244   1.09428   336476.34
  16276.280 -0.871289   10.0255   1.09406   338661.22
  16278.736 -0.870988   10.0414   1.09399      340152
  16280.844 -0.869832   10.0595   1.09396   342288.75
  16283.301 -0.867955   10.0818   1.09405   343707.41
  16285.760 -0.865908   10.1082   1.09401   346260.03
  16288.220 -0.864246   10.1303   1.0938   347580.56
  16290.328 -0.863297   10.1452   1.09355   349553.06
  16292.790 -0.862532   10.1649   1.09313   350868.47
  16295.252 -0.861932   10.1776   1.09258   352381.84
  16297.715 -0.861231   10.1966   1.09206   354618.12
  16300.179 -0.860586   10.2081   1.09175   355636.34
  16302.994 -0.860287   10.2215   1.09155   358020.53
  16305.459 -0.860892    10.22548   1.09143   359862.62
  16307.925 -0.8627   10.2209   1.09125   362347.69
  16310.392 -0.865681    10.20685   1.09099   363953.66
  16313.211 -0.869493   10.1882   1.09058   365340.56
  16315.680 -0.872264   10.1791   1.09024   366963.41
  16318.148 -0.87413   10.1726    1.089915   369119.22
  16320.972 -0.87529   10.1769   1.08943   370746.94
  16323.442 -0.87575   10.1853   1.08879   372376.59
  16326.268 -0.876072   10.193   1.08822   374598.19
  16329.092 -0.87639   10.2027   1.08768   376001.72
  16331.564 -0.876784   10.2099   1.08714   378168.22
  16334.393 -0.877344   10.2164   1.08667   379725.62
  16337.221 -0.878162    10.22164   1.08615   381392.97
  16340.050 -0.879415   10.2249   1.08556   382757.25
  16342.881 -0.881103   10.2239   1.08513   385086.47
  16345.713    -0.88315   10.219   1.08462   386998.62
  16348.544 -0.885632   10.2117   1.08422   388391.72
  16351.378 -0.888114    10.20357    1.083948   390122.75
  16354.211 -0.890286   10.1931   1.08367   392567.72
  16357.047 -0.892322   10.1939   1.08351   394330.62
  16360.238 -0.894255   10.1897   1.08333   396166.47
  16363.076 -0.895507   10.1944   1.0832   397776.25
  16365.914  -0.8961444   10.1972   1.08299   398917.97
  16369.107 -0.896343   10.211   1.08271   400704.62
  16371.948 -0.896257   10.2219    1.082334   402630.22
  16375.146 -0.896203   10.2371   1.08186   403833.75
  16377.989 -0.896499   10.2449   1.08138   406199.22
  16381.188 -0.897128   10.2526   1.0808   408062.62
  16384.389 -0.897964     10.2631   1.08022   409325.97
  16387.234 -0.89866   10.2661   1.07974   411936.22
  16390.438 -0.89945   10.2746   1.07924   414492.44
  16393.641 -0.900415   10.2808   1.07871   416094.59
  16396.848 -0.90158   10.286   1.07823   417413.69
  16400.055 -0.902951   10.2873   1.07776   419259.72
  16403.262 -0.904645   10.2861   1.07734   421114.66
  16406.471 -0.906593   10.284   1.07697   422800.56
  16409.684 -0.908785   10.2809   1.07661   424869.41
  16412.895 -0.911018   10.2764   1.07621   426882.16
  16416.107 -0.913193   10.271   1.07577   428407.87
  16419.320 -0.915233    10.26666   1.07537   430381.53
  16422.895 -0.917132   10.2672   1.07482   432006.09
  16426.111 -0.918358    10.26579    1.074269   433821.62
  16429.332 -0.919366   10.2781   1.07384   436209.09
  16432.908 -0.920227   10.2809   1.07331   437388.47
  16436.129 -0.920979   10.2895   1.07279   439572.81
  16439.711 -0.921699   10.3003   1.07233   441070.06
  16443.291 -0.922571   10.3104    1.071785   442338.28
  16446.518 -0.923482   10.3106   1.07145   444102.41
  16450.104 -0.924462   10.3177   1.07107    445671.5
  16453.689 -0.925559   10.3252   1.07076    447882.5
  16457.277 -0.926757   10.3293   1.07035   449140.47
  16460.510 -0.927905   10.3323   1.06997   451481.34
  16464.100  -0.9294358   10.337   1.06951   453218.19
  16467.695 -0.93113   10.3401    1.069054   455126.94
  16471.289 -0.932826   10.3394   1.0686   456682.66
  16474.885 -0.934396   10.3392    1.068067   458960.28
  16478.842 -0.936026   10.3441   1.06751   460796.84
  16482.441 -0.937336   10.3486   1.06699   462715.37
  16486.043  -0.9385459   10.3521   1.06647   464618.81
  16489.646 -0.939686   10.3605   1.06598   466315.19
  16493.611 -0.940725   10.3659   1.0654    467647.5
  16497.217 -0.941574   10.3734   1.06498   469972.78
  16500.826 -0.942382   10.3803   1.06447   471652.97
  16504.797  -0.9434035   10.3915   1.06393   473063.09
  16508.406  -0.9444266   10.3987   1.06347   474757.16
  16512.381 -0.945777   10.405   1.06292   476178.19
  16516.357 -0.947286    10.40906   1.0624   477914.12
  16519.975 -0.948701   10.4099    1.061896      478896
  16523.953 -0.95046   10.4118   1.06139   480752.81
  16527.936 -0.952274    10.41472    1.060994   482107.56
  16531.920 -0.954062   10.4162   1.06045   483244.25
  16535.906 -0.955817   10.4178   1.05991   485122.87
  16539.531 -0.957273   10.4207   1.05957   487195.44
  16543.520 -0.958797   10.4241   1.05894   488085.97
  16547.875 -0.96039   10.428   1.05839   489909.41
  16551.867 -0.96181   10.432   1.05788   491321.78
  16555.863 -0.963246   10.438   1.0573   492246.09
  16559.861 -0.964663   10.444   1.05681   494852.34
  16563.859 -0.965944    10.44928   1.0564   496463.53
  16567.863 -0.967257   10.453   1.05588   497463.62
  16572.230 -0.968622   10.4624   1.05528   498086.69
  16576.234 -0.969802   10.4677   1.0547   499984.69
  16580.607 -0.971125   10.477   1.05413   500923.62
  16584.617 -0.972387   10.4808   1.05358    502702.5
  16588.992  -0.9739869   10.4868   1.05304   504225.31
  16593.008 -0.975455   10.4919   1.05242   505611.06
  16597.387 -0.977084   10.4941   1.05192   506350.75
  16601.406 -0.97861   10.4976    1.051361   507349.34
  16605.793 -0.980304   10.5032    1.050795   508323.91
  16610.182 -0.981969   10.5061   1.05032   510694.41
  16614.570 -0.983606   10.5098    1.049731   512025.84
  16618.963 -0.985223   10.5154   1.04916   512427.19
  16622.992 -0.986715   10.5211   1.04869    512967.5
  16627.389 -0.988363   10.5237   1.04812   513947.75
  16631.789 -0.989967   10.5323   1.04753   514603.94
  16636.191  -0.9915949   10.5344   1.04691   516379.03
  16640.963 -0.993311    10.53964   1.04632   517443.09
  16645.369 -0.994863   10.5439   1.04576   518299.06
  16649.779 -0.996396   10.5512   1.04516      518768
  16654.189 -0.997826   10.5569   1.04464   520789.87
  16658.604 -0.99935    10.56284   1.04408   521190.66
  16663.389   -1.000985   10.5672   1.04341   521949.41
  16667.809  -1.00253   10.5705   1.04286   523403.06
  16672.598  -1.00433   10.5785   1.04223   524036.69
  16677.021  -1.00596   10.5838   1.04174   525267.25
  16681.818  -1.0078   10.5866   1.04112   526235.69
  16686.246  -1.00945   10.5903   1.04054   527448.12
  16691.047  -1.01124   10.5938   1.03996    527537.5
  16695.480  -1.01282   10.5987   1.03945   528939.81
  16700.287  -1.01459   10.6052   1.03882      528477
  16705.096  -1.01625   10.6087   1.0382   529544.19
  16709.908  -1.01785   10.6123   1.03757   528527.31
  16714.723  -1.01969   10.6219   1.03689   530331.31
  16719.170    -1.02115   10.626   1.03644   531670.31
  16723.990  -1.02277   10.6313   1.03581   532387.25
  16728.813  -1.02442   10.6376   1.03521   533240.06
  16733.639  -1.02609   10.6438   1.03461   532951.87
  16738.840  -1.02785   10.6492   1.03395   532558.62
  16743.670  -1.02941    10.65641   1.03336   533507.25
  16748.506  -1.03104    10.66165   1.03284   534356.87
  16753.342  -1.03268   10.665   1.03224   534546.44
  16758.182  -1.03436    10.67233   1.03161   534403.87
  16763.396  -1.03624    10.67817   1.03097   534256.31
  16768.244  -1.03794    10.68267   1.03028   534884.62
  16773.094  -1.03965   10.6885   1.02977   535312.94
  16778.318  -1.04147   10.6925   1.02908   536214.12
  16783.174  -1.04318    10.69964   1.02849   535860.31
  16788.404  -1.04507   10.7048    1.027806   534909.44
  16793.641  -1.04684   10.7082   1.02713   535328.44
  16798.504  -1.0485   10.716   1.0266   535627.44
  16803.746  -1.05025    10.72173    1.025903   535466.31
  16808.990   -1.051995   10.7262   1.0253   535322.19
  16813.863  -1.05327   10.7302    1.024835   532337.94
  16819.115  -1.05556   10.7411   1.02397   535029.69
  16824.369  -1.05709   10.7419   1.02343   536292.31
  16829.627  -1.05887   10.749   1.02279   535496.94
  16834.887  -1.06053   10.7576   1.0222   536308.44
  16840.152  -1.06227   10.7603   1.0216   535778.94
  16845.420  -1.06401   10.7658    1.020929   535539.31
  16850.691  -1.06575   10.773   1.02032   536100.62
  16855.965  -1.06751   10.7781   1.01973   535697.94
  16861.244  -1.06921   10.7834   1.01915   535850.12
  16866.525  -1.07097   10.7876   1.01846   535033.31
  16872.188   -1.072929    10.79471   1.01783   534672.37
  16877.477  -1.07473   10.8017   1.01721   534146.37
  16882.768  -1.07639   10.8082   1.01656   534252.37
  16888.441  -1.07821   10.8092    1.015874   534040.25
  16893.740  -1.07996   10.8168   1.01526   533695.12
  16899.041  -1.0817   10.8207   1.01457   533100.87
  16904.727   -1.083507   10.829   1.01389   532001.56
  16910.416  -1.08531   10.8337   1.01319   532109.25
  16915.729  -1.08704   10.839    1.012585   530716.81
  16921.424  -1.08883   10.8439   1.01202   529481.31
  16926.744  -1.09051   10.8505   1.0114   529590.81
  16932.447   -1.092416   10.8579   1.01069   528835.19
  16938.154  -1.09422    10.86007    1.010021    529212.5
  16943.865  -1.09609   10.8669    1.009472   528918.81
  16949.582  -1.09794   10.8718   1.00881      527773
  16955.301  -1.09975   10.8807   1.00817   526622.12
  16960.643  -1.10143   10.8836    1.007474   526188.19
  16966.371  -1.10322   10.8865   1.00685   524988.25
  16972.100   -1.105083   10.8959   1.00624   524571.19
  16977.836  -1.10693    10.90197   1.00563   523232.06
  16983.957  -1.1088   10.9062    1.004873   521625.91
  16989.699  -1.11057   10.9124   1.00418   519387.66
  16995.447  -1.11239   10.9163   1.00359   519082.37
  17001.197  -1.11415   10.9231   1.00297      518412