File: data/Sr/SrO_10K_01.xdi
# XDI/1.0 EXAFS Data Collector 1.1 AD.RGN
# Column.1: energy eV
# Column.2: mutrans
# Column.3: murefer
# Column.4: i0
# Beamline.name: SSRL 4-3
# Detector.I0: N2 15cm
# Detector.I1: N2+Ar 30cm
# Detector.I2: Ar
# Element.edge: K
# Element.symbol: Sr
# Mono.d_spacing: 1.920128
# Mono.name: Si(220)
# Mono.notes: (?) unfocussed, detuned 50%, clockwise at E=17000eV
# Sample.formula: SrO
# Sample.name: strontium oxide
# Sample.prep: powder
# Sample.reference: SrCO3
# Sample.temperature: 10K
# Scan.start_time: 1995-06-16 02:32:00
# ///
#    Note: mono d_spacing is nominal!
#-------------
#   energy   mutrans        murefer      i0
  15699.933  0.990044  -1.1264   76951.703
  15710.044  0.988656  -1.12763   76511.703
  15719.844  0.987637   -1.128729   76084.703
  15729.982  0.986222  -1.13012   75644.703
  15740.136  0.984656   -1.131356   75282.703
  15749.973  0.983185  -1.13282   74872.703
  15760.152  0.983187  -1.13405   73386.703
  15770.016  0.97703  -1.13531   74131.703
  15779.891  0.978795  -1.13668   73900.703
  15790.109  0.977216  -1.13799   73523.703
  15800.011  0.975745  -1.13939   73147.703
  15809.925  0.974338  -1.14084   72856.703
  15819.854  0.972819  -1.14228   72510.703
  15830.124  0.971442  -1.14382   72043.703
  15840.076  0.969977  -1.14494   71716.703
  15850.042  0.968528  -1.14673   71433.703
  15860.021  0.967215  -1.14792   71042.703
  15870.012  0.965852  -1.14934   70764.703
  15880.018  0.9645  -1.15076   70406.703
  15890.033  0.96308  -1.15222   70073.703
  15900.063  0.961732  -1.15354   69785.703
  15910.108  0.960297  -1.15512   69408.703
  15920.164  0.958971  -1.15656   69149.703
  15929.896  0.957696  -1.15797   68829.703
  15939.978  0.956151  -1.15936   68486.703
  15950.073  0.954777  -1.16083   68114.703
  15959.844  0.952958  -1.16226   67749.703
  15969.964  0.952997  -1.1636   67443.703
  15980.097  0.950974  -1.16531   67198.703
  15989.906   0.9496509  -1.16657   66830.703
  16000.064  0.94872  -1.16798   66569.703
  16009.897  0.947208  -1.16939   66324.703
  16020.082  0.945833  -1.17094   66014.703
  16029.942   0.9454113  -1.17233   65667.703
  16040.152  0.944132  -1.17376   65308.699
  16050.036  0.943051  -1.17531   65032.699
  16059.933  0.942293  -1.17664   64721.699
  16069.841   0.9418149  -1.17822   64290.699
  16080.104  0.941731  -1.17976   64041.699
  16090.039  0.942235  -1.1811   63750.699
  16099.984  0.94407  -1.18267   63407.699
  16109.943  0.948649  -1.18407   63024.699
  16119.917  0.96097  -1.18553   62744.699
  16121.293   0.9636218  -1.18574   62714.699
  16122.670  0.966924  -1.18589   62761.699
  16123.702  0.969782  -1.18581   62851.699
  16125.079  0.974908  -1.18586   62779.699
  16126.112  0.979674  -1.18614   62714.699
  16127.490  0.988247  -1.18644   62671.699
  16128.867  0.999869  -1.18657   62610.699
  16129.901   1.01163  -1.18657   62677.699
  16131.278   1.0364  -1.18696   62597.699
  16132.657   1.07855  -1.18719   62481.699
  16133.690   1.12706  -1.18719   62509.699
  16135.069   1.22222  -1.18711   62592.699
  16136.104   1.30509  -1.18706   62534.699
  16137.483   1.42549  -1.1866   62573.699
  16138.861   1.52717  -1.18661   62487.699
  16139.897   1.58887  -1.18626   62516.699
  16141.276   1.67768  -1.186   62418.699
  16142.657    1.790373  -1.18614   62344.699
  16143.692   1.88202  -1.1855   62339.699
  16145.073   1.9971  -1.18535   62265.699
  16146.108   2.04599  -1.18513   62251.699
  16147.490   2.04507  -1.18486   62248.699
  16148.871   1.99331   -1.185393   62132.699
  16149.907   1.94603   -1.185726   62154.699
  16151.289   1.88972  -1.18626   62205.699
  16152.670   1.85017  -1.1866   62115.699
  16153.707   1.82775  -1.1868   62100.699
  16155.090   1.79956  -1.187    124098.4
  16155.779   1.78834  -1.18707   123957.36
  16156.473   1.7773  -1.18715   123991.25
  16157.162   1.76681   -1.187567   123908.05
  16157.854   1.75754  -1.18753   123986.79
  16158.547   1.7492  -1.18757   123944.44
  16159.237   1.7411  -1.18787   124056.02
  16160.274   1.729  -1.18796   124049.52
  16160.968    1.721417  -1.18807   123992.95
  16161.659   1.71268  -1.18827   124170.29
  16162.695   1.69892  -1.18849   124137.56
  16163.389   1.69115  -1.18878   124280.76
  16164.426   1.68112  -1.18882   124379.87
  16165.465   1.67582  -1.18916   124487.91
  16166.157    1.674949  -1.18927   124582.87
  16167.195    1.677186  -1.18941   124696.77
  16168.234   1.68223  -1.18946   124531.58
  16169.271   1.68846   -1.189536   124260.31
  16170.311   1.69485  -1.18968   124457.97
  16171.349   1.70243  -1.18971   124531.55
  16172.388    1.710872  -1.18971   124917.05
  16173.428   1.72002  -1.18988   125550.48
  16174.466   1.73211  -1.18989   126120.83
  16175.506   1.74529  -1.18985    126274.1
  16176.545   1.75985  -1.18995    126502.3
  16177.932   1.78019  -1.19031   126584.41
  16178.971   1.79417  -1.19015   126931.45
  16180.012   1.80756  -1.19023   127206.42
  16181.399   1.82275  -1.19054   127429.31
  16182.440   1.83082  -1.19052   127940.12
  16183.826   1.83695  -1.19052   128212.86
  16185.214   1.83589  -1.1906   128498.52
  16186.254   1.83049  -1.19088    128855.1
  16187.644   1.81774  -1.19124   129138.61
  16189.030   1.80317  -1.19136   129467.03
  16190.419   1.79016  -1.19171   129824.38
  16191.809   1.7811  -1.19181   130279.66
  16193.197    1.775867   -1.191998   130637.86
  16194.587    1.772886  -1.19217   131018.98
  16195.976    1.770267  -1.19232   131438.03
  16197.366   1.76709  -1.19259      131716
  16198.755   1.76278  -1.19269   132090.89
  16200.493   1.75507   -1.192999    132640.7
  16201.884   1.74779  -1.19335   132933.44
  16203.274   1.73953  -1.19357   133477.09
  16205.013    1.728742  -1.19369   133984.69
  16206.405   1.722  -1.19402   134535.19
  16208.145   1.71579   -1.194293   134949.62
  16209.884    1.712795  -1.19451   135361.97
  16211.276   1.71263  -1.19483   135900.25
  16213.016   1.71413  -1.19492   136265.45
  16214.757   1.7158  -1.19519   136921.58
  16216.499   1.71633  -1.19534   137316.62
  16218.240   1.71625  -1.1956   137860.59
  16219.981   1.71698  -1.19583   138317.48
  16221.725   1.71987  -1.19598    138878.3
  16223.468   1.72507  -1.19616   139308.05
  16225.210   1.73215   -1.196377    139973.7
  16226.954   1.73987  -1.19671    140453.3
  16228.698   1.74677  -1.19687    141021.8
  16230.792    1.751564  -1.19737   141367.23
  16232.535   1.75176  -1.19764   141697.59
  16234.281   1.74894   -1.198032   141891.87
  16236.376   1.7443  -1.19835   142032.08
  16238.122   1.74205  -1.19856    142491.2
  16240.217     1.74325  -1.19887   142897.25
  16242.313    1.747472  -1.19918   143508.22
  16244.061    1.750855  -1.19926   144323.12
  16246.159   1.75246  -1.19965   145443.94
  16248.257   1.75033  -1.19987   146808.67
  16250.354   1.7444  -1.20021   148234.34
  16252.454   1.73638  -1.2006   149331.94
  16254.553   1.72821  -1.20095   150338.44
  16256.653   1.72087  -1.20141   151143.87
  16258.753   1.71434  -1.20166   151996.23
  16260.855   1.70884  -1.202   152750.52
  16262.957     1.70479   -1.202114   153175.72
  16265.059     1.70294  -1.20255   153597.86
  16267.162   1.70241    -1.20296   154023.91
  16269.616    1.703279  -1.20325   154422.87
  16271.719   1.70492   -1.203529   155019.78
  16274.174   1.70648  -1.20378   155934.59
  16276.280    1.707225  -1.204   156961.34
  16278.736   1.70747  -1.20431   158103.02
  16280.844    1.707999  -1.20468   159362.59
  16283.301   1.70905  -1.20507   160491.11
  16285.760   1.71056  -1.20534   161369.55
  16288.220   1.71227  -1.20556   162137.91
  16290.328   1.71337  -1.20618    162759.2
  16292.790    1.712957  -1.20666   163572.41
  16295.252   1.71081  -1.20688   164337.53
  16297.715   1.71008  -1.20717   165100.59
  16300.179    1.713029  -1.2079   166012.56
  16302.994   1.71796  -1.2082   166802.47
  16305.459   1.71963  -1.20846   167675.28
  16307.925   1.71745    -1.20892   168549.03
  16310.392   1.71296  -1.20931    169442.7
  16313.211   1.7065  -1.20969    170293.3
  16315.680   1.70137  -1.20996   171423.81
  16318.148   1.69814  -1.21043   172292.25
  16320.972   1.69774  -1.21083   173195.61
  16323.442   1.70067  -1.21101   174208.91
  16326.268   1.70587  -1.21141   175066.11
  16329.092   1.71023  -1.21188   175837.23
  16331.564   1.71158  -1.21208    176827.3
  16334.393   1.71098  -1.2125   177776.28
  16337.221   1.70901  -1.21291   178700.17
  16340.050   1.70577  -1.21321      179559
  16342.881   1.70157  -1.21372   180447.75
  16345.713   1.69706  -1.21414   181391.42
  16348.544    1.693063  -1.21455   182535.02
  16351.378   1.68955  -1.21484   183587.53
  16354.211   1.6864   -1.215238   184696.98
  16357.047   1.68307  -1.21561   185537.34
  16360.238    1.679183  -1.21601   186411.62
  16363.076   1.67677  -1.21643   187418.84
  16365.914    1.676707  -1.21674   188203.97
  16369.107    1.680333  -1.21713   189194.03
  16371.948   1.68508  -1.21743   190149.02
  16375.146   1.68944  -1.21796   191265.92
  16377.989   1.69227  -1.21824   192215.75
  16381.188   1.69472  -1.21862    193187.5
  16384.389   1.69656  -1.21906   194452.17
  16387.234   1.69778  -1.21933   195431.77
  16390.438    1.698083  -1.21979    196395.3
  16393.641   1.69558   -1.220211   197461.73
  16396.848   1.68951  -1.2207   198262.09
  16400.055   1.68238  -1.22113   199390.39
  16403.262   1.67743  -1.22155   200227.61
  16406.471   1.67537  -1.2219   201210.73
  16409.684   1.6752  -1.22257    202405.8
  16412.895   1.675  -1.22303   203487.78
  16416.107   1.67411   -1.223539   204690.69
  16419.320   1.67177  -1.22395   205637.52
  16422.895   1.66836  -1.2244   206408.27
  16426.111   1.66535  -1.22491   207584.95
  16429.332   1.66415  -1.22522   208402.55
  16432.908   1.66566  -1.22555   209400.08
  16436.129   1.66746  -1.22622   210607.52
  16439.711   1.66917  -1.22665   211747.89
  16443.291   1.67082  -1.22705   212802.17
  16446.518   1.67231  -1.22732   213772.39
  16450.104   1.67324  -1.22783   214763.53
  16453.689   1.6719  -1.22795   215560.59
  16457.277   1.66993  -1.22805   216349.58
  16460.510   1.6691  -1.22847   217445.48
  16464.100   1.66756  -1.22882   218401.31
  16467.695   1.66385  -1.22948   219474.08
  16471.289   1.65897  -1.23028   220517.75
  16474.885   1.65453  -1.23033   221682.36
  16478.842   1.65203  -1.23075   222630.87
  16482.441    1.651394  -1.23136   223423.33
  16486.043   1.65124  -1.23196    224082.7
  16489.646   1.64982  -1.23229      225243
  16493.611   1.64794  -1.23288    226320.2
  16497.217   1.6478  -1.23326   227784.36
  16500.826   1.64968   -1.233747   228992.42
  16504.797   1.65319  -1.23413   229754.41
  16508.406   1.65702   -1.234765   230807.31
  16512.381   1.65962   -1.235246   231722.14
  16516.357   1.65755  -1.23584   232760.91
  16519.975   1.65342  -1.23631   233889.58
  16523.953   1.64948  -1.23686   234699.19
  16527.936   1.64641  -1.2373   235667.72
  16531.920   1.64431  -1.23786   236412.17
  16535.906   1.64309  -1.23841   237521.55
  16539.531   1.64192   -1.238904   238338.84
  16543.520    1.638594  -1.2394   239284.06
  16547.875   1.63437  -1.23991    240233.2
  16551.867   1.63212  -1.24056   240992.27
  16555.863   1.63187  -1.24111   241801.25
  16559.861   1.63234  -1.24161   242697.17
  16563.859   1.63208  -1.24205      244077
  16567.863     1.63179  -1.24255   244990.77
  16572.230   1.63227   -1.243162   245920.45
  16576.234   1.63331  -1.24363   246830.05
  16580.607   1.63562  -1.24416   247762.58
  16584.617   1.63663   -1.244659   248607.03
  16588.992   1.63547  -1.24525   249285.41
  16593.008   1.63328  -1.24596    250330.7
  16597.387   1.62977  -1.24696   251102.94
  16601.406   1.62672  -1.24751   251724.08
  16605.793   1.62471  -1.24815   252418.14
  16610.182   1.62386  -1.24884   253776.14
  16614.570    1.624652  -1.24944   254942.05
  16618.963    1.624591  -1.2501   255535.89
  16622.992   1.62331  -1.25049   256446.66
  16627.389   1.62076  -1.25091   256965.33
  16631.789    1.617827  -1.25166   257608.94
  16636.191   1.6139  -1.25216   258697.47
  16640.963   1.61179  -1.25284   259344.92
  16645.369   1.61059  -1.25331   260168.31
  16649.779   1.60957  -1.25376   260860.61
  16654.189   1.60922  -1.25427   261397.83
  16658.604   1.61041  -1.2548   262536.97
  16663.389   1.61277   -1.255335   262995.06
  16667.809    1.614041  -1.25594   263702.03
  16672.598   1.61344  -1.25661   264517.97
  16677.021   1.61214  -1.25726   265265.81
  16681.818   1.60953  -1.25801   266164.56
  16686.246   1.60566  -1.25859   266647.25
  16691.047   1.60227  -1.25903   267373.87
  16695.480   1.60056  -1.25948   268174.41
  16700.287   1.59945  -1.26013   268922.84
  16705.096   1.59843  -1.26072   269394.22
  16709.908   1.5977  -1.26125   269903.53
  16714.723   1.5972  -1.26191   269862.75
  16719.170    1.594101  -1.26247   271314.91
  16723.990   1.59205  -1.26301   271961.97
  16728.813   1.5914  -1.26353   272382.97
  16733.639   1.59163  -1.26432   272864.91
  16738.840   1.59246   -1.265061   273428.75
  16743.670   1.59279  -1.26533    274136.5
  16748.506   1.59184  -1.26606   274928.19
  16753.342   1.58967  -1.26662   275421.81
  16758.182   1.58778  -1.26733   275724.34
  16763.396   1.58661  -1.26793   276103.81
  16768.244   1.58594   -1.268648   276763.19
  16773.094   1.58537  -1.26923    277197.5
  16778.318   1.58323  -1.26985   277557.72
  16783.174    1.581003  -1.27032   278418.87
  16788.404   1.57892  -1.27101   278395.94
  16793.641   1.57688  -1.27165   278555.94
  16798.504   1.57535  -1.27236   279334.87
  16803.746   1.57407  -1.27288   279994.72
  16808.990   1.57351  -1.27341   279949.47
  16813.863   1.57237  -1.27398   280089.16
  16819.115    1.570702  -1.27462   279476.78
  16824.369   1.5695  -1.27539   281488.31
  16829.627   1.56902  -1.27592   282094.78
  16834.887   1.56892  -1.27642   281788.16
  16840.152   1.56751  -1.27696   282808.47
  16845.420   1.56515    -1.27752   282964.72
  16850.691   1.56314  -1.278   283032.84
  16855.965   1.56197  -1.27858   283304.94
  16861.244    1.562272  -1.27938   283575.94
  16866.525   1.56228  -1.28016   283531.87
  16872.188   1.56155  -1.28087   283452.72
  16877.477   1.55965  -1.28163   283980.47
  16882.768   1.55678  -1.28223   283951.16
  16888.441   1.5544  -1.28293   283953.78
  16893.740   1.55269  -1.28361   284449.31
  16899.041   1.55022  -1.28421   284837.78
  16904.727   1.54738   -1.284825   284917.19
  16910.416   1.5457  -1.28548    285151.5
  16915.729   1.54497  -1.28609   285019.72
  16921.424   1.54523  -1.28666   285349.87
  16926.744   1.54533  -1.2871   285276.97
  16932.447     1.54445  -1.28775   285283.97
  16938.154   1.5424  -1.28864   285149.87
  16943.865   1.54078  -1.28934   285506.72
  16949.582     1.54005  -1.2901    285587.5
  16955.301   1.53849  -1.29072   285659.19
  16960.643   1.53611  -1.29073   285677.81
  16966.371   1.53395  -1.29106   285815.37
  16972.100   1.53292  -1.29172   285647.81
  16977.836   1.532  -1.29238   285588.22
  16983.957   1.53068   -1.293364   285261.53
  16989.699   1.52895  -1.29389   284928.75
  16995.447   1.52799  -1.29466   285048.91
  17001.197   1.52618  -1.29542      285264