File: data/Sr/SrO_10K_03.xdi
# XDI/1.0 EXAFS Data Collector 1.1 AD.RGN
# Column.1: energy eV
# Column.2: mutrans
# Column.3: murefer
# Column.4: i0
# Beamline.name: SSRL 4-3
# Detector.I0: N2 15cm
# Detector.I1: N2+Ar 30cm
# Detector.I2: Ar
# Element.edge: K
# Element.symbol: Sr
# Mono.d_spacing: 1.920128
# Mono.name: Si(220)
# Mono.notes: (?) unfocussed, detuned 50%, clockwise at E=17000eV
# Sample.formula: SrO
# Sample.name: strontium oxide
# Sample.prep: powder
# Sample.reference: SrCO3
# Sample.temperature: 10K
# Scan.start_time: 1995-06-16 02:32:00
# ///
#    Note: mono d_spacing is nominal!
#-------------
#   energy   mutrans        murefer      i0
  15699.933  0.998801  -1.12063   69966.703
  15710.044   0.9972398  -1.12208   69537.703
  15719.844  0.996022  -1.12349   69206.703
  15729.982  0.994425  -1.1251   68782.703
  15740.136  0.992742   -1.126621   68445.703
  15749.973  0.991128  -1.12832   68014.703
  15760.152  0.991088  -1.12981   66772.703
  15770.016  0.984773  -1.13119   67377.703
  15779.891  0.986467  -1.13266   67148.703
  15790.109  0.984769  -1.13442   66670.703
  15800.011  0.983378  -1.13573   66318.703
  15809.925  0.981787  -1.13742   65991.703
  15819.854  0.980304  -1.13879   65632.703
  15830.124   0.9788923  -1.14047   65244.699
  15840.076   0.9774199  -1.14193   64954.699
  15850.042   0.9760656  -1.14353   64606.699
  15860.021  0.974552  -1.145   64238.699
  15870.012  0.973207  -1.14655   63887.699
  15880.018  0.971727  -1.14798   63523.699
  15890.033  0.970335  -1.14955   63176.699
  15900.063  0.968914   -1.151072   62807.699
  15910.108  0.967558  -1.15261   62464.699
  15920.164  0.96614  -1.15411   62181.699
  15929.896  0.964762  -1.15557   61749.699
  15939.978  0.963367  -1.15715   61414.699
  15950.073  0.961974   -1.158527   61004.699
  15959.844  0.96011  -1.16011   60590.699
  15969.964  0.960229  -1.16167   60255.699
  15980.097  0.958091  -1.16312   60009.699
  15989.906   0.9567563  -1.16467   59627.699
  16000.064  0.955842   -1.166161   59328.699
  16009.897  0.954229  -1.16761   58913.699
  16020.082  0.952867  -1.16911   58615.699
  16029.942  0.952469  -1.1706   58221.699
  16040.152  0.950993  -1.17213   57897.699
  16050.036  0.949917  -1.17359   57540.699
  16059.933  0.949104   -1.175089   57222.699
  16069.841  0.948595  -1.17661   56883.699
  16080.104   0.9484318  -1.17799   56471.699
  16090.039  0.948907  -1.17945   56175.699
  16099.984  0.950753   -1.181006   55813.699
  16109.943   0.9551141  -1.18243   55402.699
  16119.917  0.967358  -1.18387   54969.699
  16121.293  0.969964  -1.1841   55028.699
  16122.670  0.973171  -1.1842   55046.699
  16123.702  0.976026  -1.18431   54930.699
  16125.079  0.98122  -1.1845   55032.699
  16126.112  0.98592  -1.1845   54975.699
  16127.490  0.994307  -1.18497   54792.699
  16128.867   1.00571   -1.184977   54778.699
  16129.901   1.017  -1.18505   54822.699
  16131.278    1.041061  -1.18515   54792.699
  16132.657   1.08183  -1.18516   54724.699
  16133.690   1.12879  -1.18549   54665.699
  16135.069   1.2219  -1.18511   54695.699
  16136.104   1.3052  -1.18513   54548.699
  16137.483   1.42523  -1.18445   54601.699
  16138.861   1.52801  -1.18407   54543.699
  16139.897   1.5899  -1.18387   54495.699
  16141.276   1.67798  -1.18352   54490.699
  16142.657   1.78889  -1.18335   54402.699
  16143.692   1.87942  -1.18277   54435.699
  16145.073   1.99755    -1.18172   54303.699
  16146.108   2.05014   -1.181371   54275.699
  16147.490   2.05455  -1.18136   54281.699
  16148.871   2.00413  -1.18212   54164.699
  16149.907   1.95694  -1.18239   54194.699
  16151.289   1.89956  -1.18325   54079.699
  16152.670   1.85949  -1.18409   53990.699
  16153.707   1.83657  -1.18431   54003.699
  16155.090   1.8083  -1.18448    108071.4
  16155.779   1.79689  -1.18466   107942.36
  16156.473   1.78591  -1.18493   107896.25
  16157.162   1.77542  -1.18504   107791.05
  16157.854   1.76568  -1.18525   107820.79
  16158.547    1.757274  -1.1853   107832.44
  16159.237   1.74919  -1.18548   107888.02
  16160.274   1.73729  -1.18556   107825.52
  16160.968   1.72968  -1.1857   107873.95
  16161.659   1.72113  -1.18606   107920.29
  16162.695   1.7071    -1.18634   108028.56
  16163.389    1.698824  -1.1863   107998.76
  16164.426   1.68864  -1.18652   108107.87
  16165.465   1.68288  -1.18676   108246.91
  16166.157   1.68156  -1.18665   108303.87
  16167.195   1.68343  -1.18682   108221.77
  16168.234   1.68825  -1.18691   108128.58
  16169.271   1.69437  -1.18701   107927.31
  16170.311    1.700914  -1.18723   107988.97
  16171.349   1.70817  -1.18725   108256.55
  16172.388    1.716434  -1.18719   108380.05
  16173.428    1.725641  -1.18745   109027.48
  16174.466   1.73729  -1.18764   109558.83
  16175.506   1.75057  -1.18764    109864.1
  16176.545   1.765  -1.18764    110022.3
  16177.932   1.78516  -1.18773   110137.41
  16178.971   1.79923  -1.18774   110516.45
  16180.012   1.8127  -1.18788   110823.42
  16181.399   1.8282  -1.18795   110938.31
  16182.440   1.83651  -1.18791   111182.12
  16183.826   1.84365  -1.18834   111474.86
  16185.214   1.84341  -1.18841   111797.52
  16186.254   1.83845  -1.18861    112137.1
  16187.644   1.82611  -1.18901   112544.61
  16189.030   1.81132   -1.189283   112905.03
  16190.419   1.7982    -1.18973   113124.38
  16191.809   1.78873  -1.18976   113445.66
  16193.197   1.78301  -1.18993   113713.86
  16194.587   1.77999  -1.19001   114068.98
  16195.976   1.77753  -1.1904   114491.02
  16197.366   1.77438  -1.19068   114841.99
  16198.755    1.770121  -1.19076   115302.88
  16200.493   1.76285  -1.19126    115589.7
  16201.884   1.75564  -1.19139   116047.44
  16203.274   1.74714  -1.19163    116479.1
  16205.013   1.7363  -1.19197   116882.68
  16206.405   1.72934  -1.19227   117330.19
  16208.145   1.72287  -1.19249   117740.62
  16209.884   1.71973  -1.1928   118309.98
  16211.276   1.71925  -1.19292   118611.25
  16213.016   1.72055  -1.19294   119028.45
  16214.757   1.72238  -1.19335   119503.58
  16216.499   1.72308  -1.19351   119922.62
  16218.240   1.7229  -1.19374   120449.59
  16219.981   1.72337  -1.19388   121043.48
  16221.725   1.7261  -1.19424    121378.3
  16223.468   1.73114  -1.19452   121883.05
  16225.210   1.73817  -1.19486   122410.71
  16226.954   1.74566  -1.19503    122841.3
  16228.698   1.75242   -1.195138    123371.8
  16230.792   1.75759  -1.19549   123846.23
  16232.535   1.75777  -1.1956   124143.59
  16234.281   1.75489  -1.19593   124389.87
  16236.376   1.75036  -1.19631   124330.08
  16238.122   1.74799  -1.19656    124755.2
  16240.217   1.74919  -1.19676   125044.25
  16242.313   1.75387  -1.19693   125666.22
  16244.061   1.75763  -1.19724   126447.12
  16246.159    1.759467  -1.19747   127515.94
  16248.257   1.75737  -1.19773   128831.68
  16250.354   1.75154  -1.19807   130017.34
  16252.454   1.74331  -1.19862   131162.94
  16254.553   1.73486  -1.19892   132065.44
  16256.653    1.727292   -1.199263   132878.87
  16258.753   1.72076  -1.19949   133532.23
  16260.855   1.71539  -1.19979   134053.52
  16262.957   1.7116  -1.20025   134579.72
  16265.059   1.70959  -1.20054   134980.86
  16267.162   1.70874  -1.20065   135497.91
  16269.616   1.70944  -1.20108   135947.87
  16271.719   1.71098  -1.20144   136540.78
  16274.174   1.71239    -1.20169   137255.59
  16276.280   1.71298  -1.20199   138180.34
  16278.736   1.71323   -1.202337   139326.02
  16280.844   1.7136  -1.20253   140320.59
  16283.301   1.71477  -1.20292   141274.11
  16285.760   1.71651  -1.20334   142187.55
  16288.220   1.71841  -1.2037   142868.91
  16290.328   1.71934   -1.203953    143621.2
  16292.790   1.71851  -1.20429   144475.41
  16295.252   1.71603  -1.2047   145606.53
  16297.715   1.71508  -1.20503   146772.59
  16300.179   1.71741  -1.20535   147301.56
  16302.994    1.722348  -1.20578   148123.47
  16305.459   1.72417  -1.20608   149002.28
  16307.925   1.72196  -1.20632   149783.03
  16310.392   1.71747  -1.20662    150544.7
  16313.211   1.71134  -1.20702    151338.3
  16315.680    1.706125  -1.20733   152170.81
  16318.148   1.7027  -1.20781   153035.25
  16320.972   1.70204  -1.20802   153866.61
  16323.442   1.70481   -1.208413   154810.91
  16326.268   1.71004  -1.20875   155589.11
  16329.092   1.71458  -1.20919   156558.23
  16331.564   1.71626  -1.20957    157370.3
  16334.393   1.71582   -1.209949   158279.28
  16337.221   1.71378  -1.21028   159303.17
  16340.050   1.71056  -1.21073      160145
  16342.881   1.70633  -1.21113   160948.75
  16345.713    1.701863  -1.21138   161907.42
  16348.544   1.69786  -1.21191   162913.02
  16351.378    1.694334  -1.21222   163762.53
  16354.211   1.69131  -1.21271   164735.98
  16357.047   1.68799  -1.21314   165537.34
  16360.238   1.68408    -1.21351   166514.62
  16363.076   1.68177  -1.21398   167501.84
  16365.914   1.6816  -1.2142   168322.97
  16369.107   1.68514  -1.21472   169466.03
  16371.948   1.68985  -1.21525   170342.02
  16375.146   1.69423  -1.21554   171122.92
  16377.989   1.69708  -1.21583   172280.75
  16381.188   1.69975  -1.2164    173320.5
  16384.389   1.70162  -1.2168   174155.17
  16387.234   1.70278  -1.21709   175205.77
  16390.438   1.70322  -1.21762    176038.3
  16393.641   1.70089  -1.21785   177002.73
  16396.848    1.694985   -1.218478   177962.09
  16400.055   1.68781  -1.21884   178910.39
  16403.262   1.68275  -1.21953   179757.61
  16406.471   1.68064  -1.21996   180722.73
  16409.684   1.68019  -1.22025    181726.8
  16412.895   1.68027  -1.22072   182602.78
  16416.107    1.679565  -1.22121   183809.69
  16419.320   1.6774  -1.22163   184584.52
  16422.895   1.67401  -1.22211   185545.27
  16426.111   1.67094  -1.22276   186581.95
  16429.332   1.66957  -1.22315   187483.55
  16432.908   1.67115  -1.22359   188603.08
  16436.129   1.67298  -1.22422   189603.52
  16439.711   1.67463   -1.224643   190576.89
  16443.291    1.676309  -1.22511   191698.17
  16446.518    1.677847  -1.22552   192505.39
  16450.104   1.67865  -1.22578   193498.53
  16453.689    1.678073  -1.22637   194327.59
  16457.277   1.67693   -1.226872   195328.58
  16460.510   1.67632  -1.22733   196514.48
  16464.100   1.67496  -1.22777   197504.31
  16467.695   1.67123  -1.22817   198366.08
  16471.289   1.66628  -1.22886   199382.75
  16474.885   1.66215   -1.229428   200308.36
  16478.842   1.65974  -1.2299   201349.87
  16482.441    1.658662  -1.23041   202594.33
  16486.043   1.6584  -1.2309    203754.7
  16489.646   1.65709  -1.23142      204605
  16493.611   1.65564  -1.23198    205522.2
  16497.217   1.65578  -1.23254   206853.36
  16500.826   1.6575  -1.23286   207559.42
  16504.797   1.66106  -1.23348   208426.41
  16508.406   1.66492  -1.23412   209271.31
  16512.381   1.66782   -1.234739   210327.14
  16516.357   1.66584  -1.23514   211126.91
  16519.975   1.6617  -1.2357   212052.58
  16523.953    1.657943  -1.23641   213081.19
  16527.936   1.65492  -1.23702   213904.72
  16531.920   1.65272  -1.23733   214939.17
  16535.906   1.65136  -1.23777   216099.55
  16539.531   1.65015  -1.23832   216968.84
  16543.520   1.64674  -1.23896   218047.06
  16547.875   1.64225  -1.23945    219153.2
  16551.867   1.6397   -1.239852   219919.27
  16555.863   1.63925  -1.24032   220381.25
  16559.861   1.6399  -1.24086   221379.17
  16563.859   1.63979  -1.24121      222793
  16567.863   1.63952  -1.24195   223591.77
  16572.230   1.63993  -1.24246   224584.45
  16576.234     1.64097   -1.242892   225543.05
  16580.607    1.643135  -1.24332   226567.58
  16584.617   1.64415  -1.2438   227411.03
  16588.992   1.64287  -1.24426   227907.41
  16593.008   1.64062  -1.24485    228806.7
  16597.387   1.6367  -1.24536   229562.94
  16601.406   1.63348  -1.24602   230425.08
  16605.793   1.6315  -1.24658   230935.14
  16610.182   1.63045  -1.24706   232196.14
  16614.570   1.63111  -1.24752   233273.05
  16618.963   1.63089   -1.247995   233916.89
  16622.992   1.62968  -1.24842   234818.66
  16627.389   1.6271  -1.24902   235540.33
  16631.789   1.62414  -1.24953   236091.94
  16636.191   1.62035  -1.25013   237261.47
  16640.963    1.618334  -1.25074   238042.92
  16645.369   1.61716  -1.25132   238825.31
  16649.779   1.61633  -1.25199   239525.61
  16654.189   1.61588  -1.25253   240518.83
  16658.604   1.61706    -1.25306   241574.98
  16663.389    1.619286  -1.25367   242460.05
  16667.809   1.62053  -1.25405   243103.05
  16672.598   1.61993   -1.254657   243680.97
  16677.021   1.61858  -1.25532    244565.8
  16681.818   1.61598  -1.25595   245571.56
  16686.246    1.612115   -1.256405   245873.25
  16691.047   1.60885  -1.25713   246935.86
  16695.480   1.60702  -1.25753   247482.39
  16700.287   1.60562  -1.2581   248096.86
  16705.096   1.60498  -1.25911   248650.23
  16709.908   1.6034  -1.25893   248957.53
  16714.723   1.60251  -1.2594   249379.77
  16719.170   1.59931  -1.26001   250665.91
  16723.990   1.59714  -1.26057   251652.98
  16728.813   1.59636  -1.26108   252169.98
  16733.639   1.59642  -1.26169   252853.91
  16738.840   1.59711  -1.26236   253504.75
  16743.670   1.59739  -1.26301   254071.52
  16748.506    1.596564  -1.26376    254526.2
  16753.342    1.594501  -1.26439   254963.81
  16758.182   1.59204  -1.26476   255710.34
  16763.396   1.59073  -1.26533    256053.8
  16768.244   1.59   -1.265962   256701.19
  16773.094   1.58913   -1.266498   257320.48
  16778.318   1.58731  -1.26727   257560.72
  16783.174    1.585211  -1.26789   258104.87
  16788.404   1.58311  -1.26869   258501.95
  16793.641   1.58106  -1.26944   258842.94
  16798.504   1.57917    -1.26999   259328.86
  16803.746   1.57779  -1.27062    259786.7
  16808.990    1.577135  -1.27105   260114.48
  16813.863   1.57596  -1.27141   260280.17
  16819.115   1.57406  -1.27193   259373.78
  16824.369   1.57293  -1.27278   261527.33
  16829.627   1.57246  -1.27343   261933.78
  16834.887   1.57208  -1.27395   262245.16
  16840.152   1.57073  -1.2747   262531.47
  16845.420    1.568101  -1.27502   262697.72
  16850.691    1.566201   -1.275788   263018.84
  16855.965   1.56515  -1.27644   263685.94
  16861.244   1.56513  -1.27692   263982.94
  16866.525   1.56493  -1.27754   264004.87
  16872.188   1.5642  -1.27829   264396.72
  16877.477   1.56225  -1.27901   264266.47
  16882.768    1.559739  -1.27976   264293.16
  16888.441   1.5574  -1.28052   264770.78
  16893.740   1.5557  -1.28121   265145.31
  16899.041   1.55333  -1.28208   265323.78
  16904.727   1.55037  -1.28242   265187.19
  16910.416   1.54871  -1.28319    265509.5
  16915.729   1.54817  -1.28385   265917.72
  16921.424   1.54831  -1.28437   266068.87
  16926.744   1.54829  -1.28493   266207.97
  16932.447   1.54704   -1.285458   266886.97
  16938.154   1.54477  -1.28639   267364.87
  16943.865   1.54303  -1.28701   267163.72
  16949.582   1.54202   -1.287644    267537.5
  16955.301   1.54032  -1.28835   267583.19
  16960.643   1.53838  -1.28874   267708.81
  16966.371    1.536409  -1.28955   267659.37
  16972.100   1.53556  -1.29035   267300.81
  16977.836   1.53466  -1.29116   267585.22
  16983.957   1.53321  -1.29194   266816.53
  16989.699   1.53161  -1.29265   266590.75
  16995.447   1.53092  -1.29372   266827.91
  17001.197   1.52938  -1.29471      266783