File: data/Sr/SrSO4_10K_01.xdi
# XDI/1.0 EXAFS Data Collector 1.1 AD.RGN
# Column.1: energy eV
# Column.2: mutrans
# Column.3: murefer
# Column.4: i0
# Beamline.name: SSRL 4-3
# Detector.I0: N2 15cm
# Detector.I1: N2+Ar 30cm
# Detector.If: Ar   (Lytle detector, using Rb Filter)
# Detector.I2: Ar
# Element.edge: K
# Element.symbol: Sr
# Mono.d_spacing: 1.920128
# Mono.name: Si(220)
# Mono.notes: (?) unfocussed, detuned 50%, clockwise at E=17000eV
# Sample.formula: SrSO4
# Sample.name: strontium sulfate
# Sample.prep: powder
# Sample.reference: SrCO3
# Sample.temperature: 10K
# Scan.start_time: 1995-06-16 08:48:56
# ///
#    Note: mono d_spacing is nominal!
#-------------
#   energy   mutrans       murefer      i0
  15699.933 0.0835892  -1.13175    130706.7
  15710.044 0.0822218   -1.133239    129927.7
  15719.844 0.0808274  -1.13468    129373.7
  15729.982 0.0793118  -1.13616    128809.7
  15740.136 0.0779113  -1.13772    128152.7
  15749.973 0.0764233  -1.13911    127670.7
  15760.152 0.0749595   -1.140654    125195.7
  15770.016 0.0735571  -1.1421    126013.7
  15779.891 0.0721374   -1.143515    126104.7
  15790.109 0.0706711  -1.1449    125359.7
  15800.011 0.0692438  -1.14638    124639.7
  15809.925 0.0678422   -1.147751    124092.7
  15819.854 0.0663989   -1.149185    123430.7
  15830.124 0.0649209  -1.1507    122823.7
  15840.076 0.0635217   -1.152077    122192.7
  15850.042 0.0621362  -1.15359    121561.7
  15860.021 0.0607149  -1.15496    121009.7
  15870.012 0.0593175  -1.15637    120284.7
  15880.018 0.0578853  -1.15771    119830.7
  15890.033 0.0564871  -1.15917    119197.7
  15900.063 0.0550986  -1.1606    118554.7
  15910.108  0.05371751  -1.16207    117886.7
  15920.164  0.05231671  -1.16347    117329.7
  15929.896 0.0509789  -1.16486    116767.7
  15939.978  0.04962335  -1.16633    116096.7
  15950.073 0.0482544  -1.16778    115530.7
  15959.844 0.0468981  -1.1692    114797.7
  15969.964 0.0455729   -1.170594    114107.7
  15980.097 0.0441988  -1.17198    113573.7
  15989.906 0.042923  -1.17347    112995.7
  16000.064 0.0416108   -1.174858    112336.7
  16009.897  0.04035601  -1.1762    111762.7
  16020.082 0.0390701  -1.17764    111165.7
  16029.942 0.0378486  -1.17906    110429.7
  16040.152  0.03668977  -1.1805    109854.7
  16050.036 0.0355373  -1.18191    109227.7
  16059.933 0.0345062  -1.1832    108630.7
  16069.841 0.0335936  -1.18462    107898.7
  16080.104  0.03285945  -1.18604    107144.7
  16090.039 0.0324262   -1.187483    106609.7
  16099.984 0.0326336   -1.188865    105880.7
  16109.943 0.0340852  -1.1902    105204.7
  16119.917 0.0389096  -1.19156    104592.7
  16121.293 0.0398924  -1.19169    104622.7
  16122.670 0.041198  -1.19193    104593.7
  16123.702 0.0424192  -1.19193    104533.7
  16125.079 0.0444069  -1.19207    104511.7
  16126.112 0.0462989  -1.19225    104357.7
  16127.490  0.04941723  -1.19232    104311.7
  16128.867 0.0536901  -1.19265    104171.7
  16129.901 0.0577401  -1.19276    104010.7
  16131.278 0.0656487   -1.192699    104020.7
  16132.657 0.078357  -1.19285    103886.7
  16133.690 0.0921112  -1.19287    103873.7
  16135.069   0.1193148   -1.192759    103701.7
  16136.104  0.146934  -1.19279    103648.7
  16137.483  0.204908  -1.19232    103657.7
  16138.861  0.29324   -1.192537    103461.7
  16139.897  0.372016  -1.19255    103501.7
  16141.276  0.491854  -1.19269    103270.7
  16142.657  0.625736  -1.19288    103070.7
  16143.692  0.724195  -1.19315    103114.7
  16145.073  0.825717   -1.194035    102975.7
  16146.108  0.851034  -1.19474    102950.7
  16147.490   0.8056448  -1.1952    102840.7
  16148.871  0.696459  -1.19537    102607.7
  16149.907   0.6121736  -1.19504    102637.7
  16151.289  0.517504  -1.1949    102569.7
  16152.670  0.458871  -1.19495    102402.7
  16153.707  0.437295  -1.1951    102234.7
  16155.090  0.432339  -1.19508   204532.41
  16155.779  0.436761  -1.19515   204301.36
  16156.473  0.444439  -1.19529   204213.25
  16157.162  0.453609  -1.19551   204089.05
  16157.854   0.4626196  -1.19561   204131.78
  16158.547  0.470119  -1.19585   204277.44
  16159.237  0.47549   -1.195983   204008.02
  16160.274  0.478548  -1.19613   204120.52
  16160.968  0.477803  -1.19624   204120.94
  16161.659  0.475649  -1.19635    204112.3
  16162.695  0.471097  -1.19641   204060.56
  16163.389  0.468515  -1.19647   204464.75
  16164.426  0.465752  -1.19663   204437.87
  16165.465  0.465648   -1.196654   204507.91
  16166.157  0.46729  -1.19664   204628.87
  16167.195  0.473054  -1.19675   204776.77
  16168.234  0.482627   -1.196854   204779.58
  16169.271  0.495313  -1.19693   204120.31
  16170.311  0.51071  -1.19725   204085.97
  16171.349  0.527458  -1.19742   204336.55
  16172.388  0.545278  -1.19743   204962.05
  16173.428  0.563946  -1.19758   205484.47
  16174.466  0.582099  -1.19772   206441.83
  16175.506  0.597936  -1.19788   207600.09
  16176.545  0.609751  -1.19812    207816.3
  16177.932  0.613973   -1.198454   208164.41
  16178.971  0.606471  -1.19858   208687.45
  16180.012  0.590061  -1.19867   209096.42
  16181.399    0.559652  -1.19881   209353.31
  16182.440  0.537477  -1.19886   209930.12
  16183.826  0.513658   -1.198937   210412.86
  16185.214  0.502256  -1.19901   210962.52
  16186.254  0.502374  -1.19913   211389.09
  16187.644  0.512676  -1.19936   211741.61
  16189.030  0.530973  -1.19957   212167.03
  16190.419  0.551121  -1.19988   212419.39
  16191.809  0.56524  -1.20016   213292.66
  16193.197  0.567701  -1.2005   213780.86
  16194.587  0.557201  -1.2007   214448.98
  16195.976  0.537581  -1.2008   215142.03
  16197.366  0.514831  -1.20104      215938
  16198.755  0.494049  -1.20106   216525.89
  16200.493  0.474999  -1.20135    217356.7
  16201.884  0.466633  -1.20149   218128.44
  16203.274  0.462019  -1.20166   218774.09
  16205.013  0.458164  -1.20191   219379.69
  16206.405  0.455113  -1.20217   220195.19
  16208.145  0.451499  -1.20231   221034.62
  16209.884  0.451103  -1.20251   221810.97
  16211.276   0.4553645  -1.20266   222487.25
  16213.016  0.468074  -1.20278   223378.45
  16214.757  0.486904   -1.203035   224127.58
  16216.499  0.506877  -1.20328   225041.62
  16218.240   0.5239606  -1.20358   225855.59
  16219.981  0.535644  -1.20388   226862.48
  16221.725  0.542072  -1.20414    227735.3
  16223.468  0.54395  -1.20436   228597.05
  16225.210  0.543744  -1.20464    229372.7
  16226.954  0.544792  -1.20479    230514.3
  16228.698  0.548315  -1.20508    231513.8
  16230.792  0.552071  -1.20535   232184.23
  16232.535  0.54978  -1.2055   232757.59
  16234.281  0.540417  -1.20573   233486.87
  16236.376   0.5229996  -1.20611   233778.08
  16238.122  0.50867  -1.20635    234214.2
  16240.217  0.49461  -1.20662   234752.25
  16242.313  0.484403  -1.20696   235545.22
  16244.061  0.478111   -1.207221   236805.12
  16246.159  0.472551  -1.20752   238316.94
  16248.257     0.46884  -1.20771   240724.67
  16250.354  0.465614  -1.20795   242778.34
  16252.454   0.4615704  -1.20824   244696.94
  16254.553    0.457596  -1.20847   246698.44
  16256.653  0.45606  -1.20873   248275.87
  16258.753  0.458628  -1.20903   249679.23
  16260.855   0.4639629  -1.20928   250966.52
  16262.957  0.469397  -1.20957   251880.72
  16265.059  0.474009  -1.20975   252322.86
  16267.162  0.478987  -1.21017   252999.91
  16269.616  0.487255    -1.21055   253793.87
  16271.719  0.49579  -1.21087   254987.78
  16274.174  0.505372  -1.21124   256206.59
  16276.280   0.5111982  -1.21156   257617.34
  16278.736  0.516361  -1.21187   259236.02
  16280.844  0.519605  -1.21212   261253.59
  16283.301  0.519139  -1.21243   263061.12
  16285.760  0.511787  -1.21283   264852.56
  16288.220  0.499909  -1.21316   266243.91
  16290.328  0.488687  -1.21345   267571.19
  16292.790  0.475879  -1.21377   268958.41
  16295.252   0.4659844  -1.2141   270314.53
  16297.715  0.4611  -1.21442   271670.59
  16300.179  0.460941   -1.214694   273467.56
  16302.994   0.4629558  -1.21519   274693.47
  16305.459  0.46494  -1.21547   276115.28
  16307.925  0.467806  -1.21576   277764.03
  16310.392   0.4725763  -1.21614   279490.69
  16313.211  0.478729  -1.21654   280638.28
  16315.680  0.481889  -1.21686   282130.81
  16318.148  0.48044  -1.21724   283609.25
  16320.972  0.472727   -1.217673   285399.62
  16323.442  0.464918  -1.21794   286754.91
  16326.268  0.459947  -1.21836   288165.09
  16329.092  0.461988  -1.21877   290001.25
  16331.564  0.467644  -1.21903   291304.28
  16334.393  0.474212  -1.21946   292637.28
  16337.221  0.477957  -1.21985   294141.19
  16340.050   0.4792328  -1.22028      295737
  16342.881  0.480862  -1.22065   297523.75
  16345.713  0.484088  -1.22104   299039.44
  16348.544  0.487227  -1.22146   300747.03
  16351.378  0.486854  -1.22186   302640.53
  16354.211  0.481599   -1.222221   303940.97
  16357.047   0.4730386  -1.2226   305340.34
  16360.238  0.462588  -1.22306   307059.62
  16363.076  0.453699  -1.22347   308957.84
  16365.914  0.446941  -1.22381   310774.97
  16369.107  0.445039  -1.22426   312410.03
  16371.948  0.448247  -1.2246      313766
  16375.146  0.454201  -1.22506   315327.91
  16377.989  0.458545  -1.22553   317097.75
  16381.188  0.460594  -1.22598    318841.5
  16384.389  0.460345  -1.22638   320050.16
  16387.234  0.4608  -1.22678   322070.78
  16390.438  0.46414  -1.22714   323782.28
  16393.641  0.468459  -1.22762   325641.72
  16396.848  0.469913   -1.228092   327201.09
  16400.055   0.4672888  -1.22851   328755.37
  16403.262  0.462153  -1.22895   330651.59
  16406.471  0.457293   -1.229367   332257.75
  16409.684   0.4533745  -1.22985   333981.81
  16412.895  0.450354  -1.23029   335908.78
  16416.107  0.449119  -1.23073   337603.69
  16419.320  0.45018  -1.23117   338964.53
  16422.895  0.452765  -1.23168   340628.28
  16426.111  0.453795  -1.23216   342208.94
  16429.332  0.451439  -1.2326   344043.56
  16432.908  0.444727  -1.23309   346004.06
  16436.129  0.438167  -1.23353   347518.53
  16439.711  0.434536  -1.23399   349178.87
  16443.291  0.43476  -1.23448   351207.19
  16446.518  0.435255  -1.23497   352788.41
  16450.104  0.436704   -1.235459   354540.53
  16453.689   0.4420675  -1.23595   356348.59
  16457.277  0.450675  -1.23641   357780.59
  16460.510  0.459253  -1.23682    359473.5
  16464.100   0.4660961  -1.23735   361072.31
  16467.695  0.465211  -1.23784   363169.06
  16471.289  0.456782   -1.238399   365001.75
  16474.885  0.445533  -1.23889   366413.34
  16478.842  0.434615  -1.23943   367739.87
  16482.441  0.428756  -1.23992   369672.31
  16486.043   0.4274065  -1.24039   370958.69
  16489.646  0.42811  -1.24089      372464
  16493.611  0.428553  -1.24142   373823.22
  16497.217  0.428352  -1.24187   375167.34
  16500.826  0.428458  -1.24238   376798.41
  16504.797  0.430849  -1.24292   378175.41
  16508.406  0.433515  -1.24338   379943.31
  16512.381  0.434065  -1.24396   381686.16
  16516.357  0.432307  -1.2445   382863.91
  16519.975  0.430547  -1.245   384344.59
  16523.953  0.428731  -1.24546   386235.19
  16527.936  0.427502  -1.24604   387510.72
  16531.920  0.427205  -1.24659   389248.16
  16535.906  0.42875   -1.247165   390889.53
  16539.531  0.431211  -1.24761   392494.84
  16543.520   0.4317953  -1.24818   393861.06
  16547.875  0.430705  -1.24881   395210.19
  16551.867  0.429391  -1.24931   396977.28
  16555.863  0.426851  -1.24984   398405.25
  16559.861   0.4243669  -1.25042   400009.16
  16563.859  0.422311  -1.25093      402002
  16567.863  0.419735  -1.2515   403118.75
  16572.230  0.417075  -1.25205   404478.44
  16576.234  0.41424  -1.25262   406432.06
  16580.607  0.410274    -1.25327   407666.59
  16584.617  0.408218  -1.25378   409103.03
  16588.992  0.408783   -1.254349   410084.41
  16593.008  0.41162  -1.25485   411536.72
  16597.387  0.414889  -1.25549   413232.94
  16601.406  0.416289  -1.25604   414889.06
  16605.793  0.415949  -1.25663   416214.16
  16610.182  0.414589  -1.25726   416949.12
  16614.570  0.413807  -1.2578   418930.06
  16618.963  0.413015  -1.25835   420115.87
  16622.992  0.411975   -1.258907   421875.66
  16627.389  0.410932  -1.25949   423387.34
  16631.789  0.407621  -1.26004   424177.94
  16636.191  0.403495  -1.26066   426052.47
  16640.963  0.399643  -1.26136   427087.94
  16645.369  0.397623  -1.26199   428812.31
  16649.779  0.399006  -1.2626   429375.59
  16654.189   0.4027797   -1.263188   430797.84
  16658.604  0.406705  -1.26381   432372.97
  16663.389  0.407653   -1.264441   433149.06
  16667.809  0.404228  -1.265   434648.03
  16672.598  0.399396   -1.265624   435797.97
  16677.021  0.395885  -1.26625   436803.81
  16681.818  0.393391  -1.26686   437838.56
  16686.246  0.391677   -1.267423   439210.25
  16691.047  0.389527  -1.26802   440388.87
  16695.480  0.388803  -1.2686   441191.41
  16700.287  0.39045  -1.26921   442640.84
  16705.096  0.39361  -1.26984   444252.22
  16709.908  0.395381  -1.27048   444635.53
  16714.723  0.394515   -1.271119   444603.75
  16719.170  0.391969  -1.27174   446818.91
  16723.990  0.388283  -1.27238   447388.97
  16728.813  0.385715  -1.273   448571.97
  16733.639  0.383981  -1.27363   449881.91
  16738.840  0.382635  -1.27426   450621.75
  16743.670  0.382901   -1.274875    451691.5
  16748.506  0.382581  -1.27553   452091.19
  16753.342  0.38225   -1.276118   453883.81
  16758.182  0.381975  -1.27673   454606.34
  16763.396  0.382046  -1.27746   454634.81
  16768.244  0.382171  -1.27803   455826.19
  16773.094  0.379927  -1.27859    456320.5
  16778.318  0.37667  -1.27926   456696.72
  16783.174  0.374529  -1.27991   457797.87
  16788.404  0.373042  -1.28056   458467.94
  16793.641    0.372247  -1.28121   459423.94
  16798.504   0.3710603  -1.28182   459617.87
  16803.746  0.369292  -1.28247   460509.72
  16808.990  0.367952  -1.28317   461175.47
  16813.863  0.368566  -1.28377   461565.16
  16819.115  0.370716  -1.28445   460655.78
  16824.369    0.371147  -1.28501   464571.31
  16829.627  0.368982  -1.28569   465325.78
  16834.887  0.366014  -1.28634   466077.16
  16840.152  0.36439  -1.28693   466258.47
  16845.420  0.364824  -1.28765   466904.72
  16850.691  0.365294  -1.28829   467353.84
  16855.965  0.363852  -1.28898   467874.94
  16861.244  0.36064  -1.28962   468674.94
  16866.525  0.35779  -1.29031   469095.87
  16872.188  0.355716  -1.29097   469519.72
  16877.477  0.35524  -1.29159   469905.47
  16882.768  0.35548  -1.29228   470954.16
  16888.441  0.35452  -1.29298   471456.78
  16893.740  0.353197  -1.29363   471687.31
  16899.041  0.352956   -1.294252   472549.78
  16904.727  0.352563  -1.29483   473244.19
  16910.416  0.351927  -1.29552    474236.5
  16915.729  0.350761  -1.29618   475216.72
  16921.424  0.349433   -1.296876   476628.87
  16926.744   0.3480437  -1.29751   478087.97
  16932.447  0.346345  -1.29824   478840.97
  16938.154  0.344644  -1.29892   479164.87
  16943.865  0.344039   -1.299643   480332.72
  16949.582  0.343618  -1.30032    481969.5
  16955.301  0.34349  -1.30102   481950.19
  16960.643  0.343798  -1.3017   483278.81
  16966.371  0.342961  -1.30238   482946.37
  16972.100  0.340857  -1.3031   483228.81
  16977.836  0.3379  -1.30383   483411.22
  16983.957  0.334975  -1.30459   483240.53
  16989.699  0.333154  -1.3053   483210.75
  16995.447  0.331711  -1.30598   484299.91
  17001.197  0.331297  -1.30666      484993