File: data/Sr/SrSO4_rt_03.xdi
# XDI/1.0 EXAFS Data Collector 1.1 AD.RGN
# Column.1: energy eV
# Column.2: mutrans
# Column.3: mufluor
# Column.4: murefer
# Column.5: i0
# Beamline.name: SSRL 4-3
# Detector.I0: N2 15cm
# Detector.I1: N2+Ar 30cm
# Detector.If: Ar   (Lytle detector, using Rb Filter)
# Detector.I2: Ar
# Element.edge: K
# Element.symbol: Sr
# Mono.d_spacing: 1.920128
# Mono.name: Si(220)
# Mono.notes: (?) unfocussed, detuned 50%, clockwise at E=17000eV
# Sample.formula: SrSO4
# Sample.name: strontium sulfate
# Sample.prep: powder
# Sample.reference: SrCO3
# Sample.temperature: room temperature
# Scan.start_time: 1995-06-14 22:11:02
# ///
#    Note: mono d_spacing is nominal!
#-------------
#   energy   mutrans      mufluor    murefer      i0
  15699.933  -1.67778  0.764274  0.55741   133365.59
  15710.044  -1.68004  0.75647  0.556477   131945.59
  15719.844  -1.6824  0.747355  0.555394   131281.59
  15729.982  -1.68463  0.738131  0.554349    130342.6
  15740.136  -1.6871  0.730327  0.553198    129314.6
  15749.973  -1.68932  0.720853  0.552242    128447.6
  15760.152  -1.69185  0.711031  0.551018    126119.6
  15770.016  -1.69427  0.702846  0.550158    127084.6
  15779.891  -1.69622   0.6930096  0.548968    126605.6
  15790.109  -1.69851  0.683812  0.547858    125737.6
  15800.011  -1.70068  0.674167  0.546737    124955.6
  15809.925  -1.703  0.665912  0.545677    124298.6
  15819.854  -1.70524  0.65706  0.544618    123612.6
  15830.124  -1.70757  0.648649  0.543498    122836.6
  15840.076  -1.70983  0.639596  0.542384    122092.6
  15850.042  -1.71209  0.632358  0.541306    121459.6
  15860.021  -1.71434  0.623084  0.540157    120747.6
  15870.012  -1.71648  0.615173  0.539068    120050.6
  15880.018  -1.71876  0.607506  0.537968    119101.6
  15890.033  -1.72091  0.599825  0.53687    118402.6
  15900.063    -1.72318  0.593294  0.535752    117639.6
  15910.108  -1.72541  0.587413  0.534661    116980.6
  15920.164  -1.72765  0.580703  0.533596    116248.6
  15929.896  -1.72976  0.573914  0.532477    115541.6
  15939.978  -1.73194  0.568555   0.5314218    114908.6
  15950.073  -1.73413  0.561905  0.530353    114152.6
  15959.844  -1.73633   0.5571521  0.529206    113374.6
  15969.964  -1.73855  0.552641  0.528053    112774.6
  15980.097  -1.74078   0.5487004  0.527036    111982.6
  15989.906  -1.74289  0.545152  0.52592    111293.6
  16000.064  -1.74506  0.543813    0.524823    110778.6
  16009.897  -1.74718  0.543145   0.5237952    110119.6
  16020.082  -1.74942  0.543324  0.522665    109271.6
  16029.942  -1.75134  0.542942  0.521537    108602.6
  16040.152  -1.75338  0.548149  0.520483    107802.6
  16050.036  -1.75539  0.551181  0.519437    107180.6
  16059.933  -1.75734  0.560723  0.518387    106378.6
  16069.841  -1.75915   0.5726986  0.517375    105608.6
  16080.104  -1.76083  0.592421  0.516334    104901.6
  16090.039  -1.76217  0.620216  0.515404    104300.6
  16099.984  -1.76291   0.6687866  0.514538    103539.6
  16109.943  -1.76264  0.754742  0.51387    102735.6
  16119.917  -1.75905  0.951751  0.513937    102233.6
  16121.293  -1.75827  0.987097  0.514047    101971.6
  16122.670  -1.75707   1.0353  0.514246    101964.6
  16123.702  -1.75616   1.07659  0.514381    101885.6
  16125.079  -1.75432   1.14415   0.5146382    101806.6
  16126.112  -1.75264   1.20528  0.515102    101760.6
  16127.490  -1.74982   1.3106  0.515755    101506.6
  16128.867  -1.74602   1.44703  0.516926    101621.6
  16129.901   -1.742281   1.57515  0.518047    101428.6
  16131.278  -1.7351   1.82363  0.520787    101230.6
  16132.657  -1.72439   2.18915  0.525904    101353.6
  16133.690  -1.71248   2.58897  0.531322    101292.6
  16135.069  -1.68668   3.427  0.541762    101054.6
  16136.104  -1.65945   4.28464  0.550664    101044.6
  16137.483  -1.60437   5.94713  0.564008    100945.6
  16138.861  -1.52945   8.07375  0.579427    100966.6
  16139.897  -1.46498   9.79006  0.591623    100799.6
  16141.276  -1.37593   12.0021  0.60786    100669.6
  16142.657  -1.30962   13.5728  0.62036    100611.6
  16143.692  -1.28284   13.8052  0.625909    100569.6
  16145.073  -1.27823   13.8247  0.627878    100427.6
  16146.108  -1.29576   13.8398  0.625226    100369.6
  16147.490  -1.33411   12.913  0.617286    100266.6
  16148.871  -1.3729   11.9605  0.607531    100198.6
  16149.907  -1.39555    11.40636  0.600256   99963.602
  16151.289  -1.41662   10.8904  0.5911   99896.602
  16152.670  -1.42732   10.63  0.58429   99793.602
  16153.707  -1.43142   10.5328  0.580738   99788.602
  16155.090  -1.43517   10.4415  0.577388    199160.2
  16155.779  -1.43659   10.4139  0.576528   199305.17
  16156.473  -1.43806    10.38075  0.575801   198996.08
  16157.162  -1.43944   10.3508  0.575219   199101.92
  16157.854  -1.44076   10.3281  0.574841    198913.7
  16158.547  -1.44176   10.3083   0.5744697   198847.41
  16159.237  -1.44241   10.2969  0.574158   198632.06
  16160.274  -1.44228   10.313  0.573872   199019.66
  16160.968  -1.44172   10.3315  0.573692   199250.19
  16161.659  -1.44081   10.3591  0.573735   199207.64
  16162.695  -1.4388   10.4246  0.574063   199307.05
  16163.389  -1.43719   10.4665  0.574412   199336.39
  16164.426  -1.43401   10.5597  0.575344   199561.66
  16165.465  -1.4304   10.6686  0.576406   199452.87
  16166.157  -1.42795     10.7389  0.57707   199461.02
  16167.195  -1.42432   10.8452  0.578102   199100.11
  16168.234  -1.4218    10.90104   0.5789268   199317.12
  16169.271  -1.42086   10.9184   0.5798462   199531.09
  16170.311  -1.4212   10.9069  0.580856   199802.98
  16171.349  -1.42222   10.8926  0.582119   200353.81
  16172.388  -1.42301   10.8844  0.583576   200651.59
  16173.428  -1.4227   10.9115  0.585079    201540.3
  16174.466  -1.42144   10.9506  0.586577   202101.94
  16175.506  -1.41961    11.00891  0.587813   202581.52
  16176.545  -1.4171   11.0831  0.589061   203046.05
  16177.932  -1.41307   11.1893  0.59017    203220.5
  16178.971  -1.41003   11.2819    0.590751   203486.89
  16180.012  -1.40691   11.3652  0.591001   204104.22
  16181.399  -1.40356   11.4594  0.590847   204504.48
  16182.440  -1.40212   11.4966  0.590502   205106.69
  16183.826  -1.40193   11.5119  0.589785   205467.83
  16185.214  -1.40414   11.4634  0.588867   206117.91
  16186.254  -1.40703   11.4  0.588135   206668.92
  16187.644  -1.41206   11.2821   0.5870904   207151.87
  16189.030  -1.41705   11.1633  0.585866   207688.75
  16190.419  -1.42128   11.0638  0.584478   208137.58
  16191.809  -1.4244   11.0005  0.583061   208974.34
  16193.197   -1.426298   10.9619  0.581578   209624.05
  16194.587  -1.42749   10.9415  0.580254   210075.67
  16195.976  -1.42864   10.9222  0.579073   210532.25
  16197.366  -1.43002   10.8925  0.577953   211184.75
  16198.755  -1.43185   10.8611  0.577081    211704.2
  16200.493  -1.43415    10.80894  0.575981   212373.59
  16201.884  -1.43565   10.7851  0.575353   213145.91
  16203.274  -1.43672   10.7698  0.574731   213780.17
  16205.013  -1.43764   10.7582   0.5742771   214946.36
  16206.405  -1.43842   10.7487  0.574219   215639.48
  16208.145  -1.43961   10.7298  0.574432   216666.56
  16209.884  -1.44103   10.7081   0.5749626   217228.56
  16211.276  -1.44221   10.6902  0.575371    218103.5
  16213.016  -1.44342   10.6735  0.576035   218822.39
  16214.757  -1.44415   10.6708  0.576632    219708.2
  16216.499  -1.44432   10.6796  0.576955   220298.95
  16218.240  -1.44399   10.7017  0.577143   221537.64
  16219.981  -1.44322   10.7367    0.577206   222116.27
  16221.725  -1.44223   10.7789   0.5771701   223053.83
  16223.468   -1.440768    10.83219   0.5770732   223939.33
  16225.210  -1.43887   10.9017  0.576861   224710.77
  16226.954  -1.43659   10.9799  0.576701   225327.14
  16228.698   -1.434391   11.0595  0.576549   226043.45
  16230.792   -1.432403    11.14237  0.576441    226482.7
  16232.535  -1.43166   11.1741  0.57644   227060.89
  16234.281  -1.43191    11.18097   0.5763945   227858.02
  16236.376  -1.43354   11.1299  0.576294   228795.08
  16238.122  -1.43568   11.0645   0.5760935   229892.06
  16240.217  -1.43928   10.9561  0.575671      231181
  16242.313  -1.44321   10.8545  0.575073   232620.87
  16244.061  -1.44628   10.7696  0.574408   234168.67
  16246.159   -1.449492   10.701  0.573598   236067.42
  16248.257  -1.45216   10.6697  0.572844   237551.11
  16250.354   -1.453999   10.6586  0.572115   239071.72
  16252.454  -1.45514   10.668  0.571413   240682.28
  16254.553  -1.45559   10.6866  0.570745   242193.77
  16256.653  -1.45563   10.7069  0.570182   243284.19
  16258.753  -1.45576   10.7312  0.569788   244261.56
  16260.855  -1.45613   10.7382  0.569477   245147.86
  16262.957  -1.45674   10.746  0.569233   246241.11
  16265.059  -1.45736   10.7395   0.5689931   247322.28
  16267.162  -1.4579   10.7318  0.568751   248456.39
  16269.616  -1.4586   10.722  0.568542   249997.44
  16271.719  -1.45916    10.70892  0.56829   251117.42
  16274.174  -1.45975   10.7045  0.568076   252617.36
  16276.280  -1.46015   10.7039  0.567912   253790.22
  16278.736  -1.46056   10.7198  0.56783   255513.02
  16280.844  -1.46074    10.73824  0.567822   257065.75
  16283.301  -1.46083   10.7627  0.567898   258776.42
  16285.760  -1.46083   10.7898  0.567966   260188.03
  16288.220  -1.46089   10.8057  0.567886   261632.58
  16290.328  -1.46112   10.814  0.567619   263252.06
  16292.790   -1.461519   10.8215  0.567256   264753.47
  16295.252  -1.46214    10.82643   0.5667565   265932.84
  16297.715  -1.46286   10.8234  0.56632   267174.12
  16300.179  -1.46354   10.8244  0.566036   268759.34
  16302.994  -1.46416   10.8324  0.565895   270062.53
  16305.459  -1.46452   10.8394  0.565885   271625.62
  16307.925  -1.46513   10.8412  0.56577   273271.69
  16310.392  -1.46633   10.8258  0.565593   274829.66
  16313.211  -1.46815   10.8029  0.565348   276094.56
  16315.680   -1.469515   10.7809  0.565058   277532.41
  16318.148  -1.47059   10.7733  0.56467   278969.22
  16320.972  -1.47177   10.7649  0.56422   280591.94
  16323.442  -1.47249   10.7619  0.563728   282345.59
  16326.268  -1.47311   10.7702  0.56317   283619.19
  16329.092  -1.47335   10.7835   0.5625962   285159.72
  16331.564  -1.47365   10.7983  0.562137   287018.22
  16334.393  -1.4741   10.8023  0.561658   287954.62
  16337.221  -1.47486   10.8073  0.561217   289378.97
  16340.050  -1.4758   10.8029  0.560751   291282.25
  16342.881  -1.47682   10.8005  0.560277   292949.47
  16345.713  -1.47773   10.7963  0.559812   294503.62
  16348.544  -1.47863   10.7963  0.559617   296030.72
  16351.378  -1.47954   10.7902   0.5594231   297588.75
  16354.211  -1.48038   10.7894  0.559226   299303.72
  16357.047  -1.48121   10.7952  0.559084   301117.62
  16360.238  -1.48198   10.8001  0.558951   302710.47
  16363.076  -1.48272   10.8022  0.558819   304353.25
  16365.914  -1.4834    10.80473  0.558664   305884.97
  16369.107  -1.48426   10.8098  0.558434   307204.62
  16371.948  -1.48493   10.8128  0.558112   308803.22
  16375.146  -1.48578   10.8131  0.557693   310605.75
  16377.989  -1.48661   10.8152  0.55732   312069.22
  16381.188  -1.48759   10.8166  0.556805   314069.62
  16384.389  -1.48853   10.8154  0.556316   315521.97
  16387.234  -1.48931   10.8137  0.555847   317272.22
  16390.438  -1.49019   10.8158  0.555385   319047.44
  16393.641  -1.4911   10.8192  0.554925   320471.59
  16396.848  -1.49198   10.818  0.554505   322054.69
  16400.055  -1.49285   10.817  0.554108   323357.72
  16403.262  -1.49386   10.8145  0.553767   325331.66
  16406.471  -1.49497    10.81388  0.553418   327152.56
  16409.684  -1.49605   10.8078  0.55308   328863.41
  16412.895  -1.49702   10.8056  0.552734   330685.16
  16416.107  -1.49791   10.8041  0.5524   332463.87
  16419.320  -1.49866   10.8069  0.552049   334055.53
  16422.895  -1.49948    10.81467  0.551537   335204.09
  16426.111  -1.50036   10.8139   0.5510611   337304.62
  16429.332  -1.5013   10.8168  0.550645   338962.09
  16432.908  -1.5024   10.8107   0.5501303   340499.47
  16436.129  -1.50345   10.8095  0.549753   342530.81
  16439.711  -1.50459   10.8076   0.5493189   344517.06
  16443.291  -1.50564   10.8057  0.548939   345400.28
  16446.518  -1.50655   10.8091  0.548637   347396.41
  16450.104  -1.50745   10.8111  0.548329    348650.5
  16453.689  -1.50822   10.8206  0.548057    350369.5
  16457.277  -1.50907   10.8234  0.547718   352177.47
  16460.510  -1.50984   10.8245  0.547488   354412.34
  16464.100  -1.51072   10.8296  0.547098   356047.19
  16467.695  -1.51162   10.8335  0.546706   357432.94
  16471.289  -1.51259   10.8366  0.546319   359269.66
  16474.885  -1.51347   10.8384  0.545917   361105.28
  16478.842  -1.51447   10.8392  0.545431   362175.84
  16482.441  -1.5153   10.8483  0.545006   364119.37
  16486.043  -1.51623   10.8496  0.544577   365301.81
  16489.646  -1.51717   10.8533  0.544133   367126.19
  16493.611   -1.518248   10.8508  0.543675    368772.5
  16497.217  -1.5192   10.8544  0.543239   370444.78
  16500.826  -1.52024   10.8522  0.542869   372060.97
  16504.797  -1.52137   10.8523    0.542378   373755.09
  16508.406  -1.52239   10.8497  0.541995   375459.16
  16512.381  -1.52361   10.8492  0.541563   377101.19
  16516.357  -1.52477   10.8467  0.541082   378281.12
  16519.975  -1.52577   10.8488  0.540714      379900
  16523.953   -1.526885   10.8462  0.540319   381217.81
  16527.936  -1.5279   10.8446  0.539887   383055.56
  16531.920  -1.52884   10.8505  0.539464   384086.25
  16535.906  -1.5298   10.8543  0.539002   386231.87
  16539.531  -1.53072   10.8613  0.53874   387590.44
  16543.520  -1.53168   10.8613  0.538285   389200.97
  16547.875  -1.53279   10.8665  0.537762   390504.41
  16551.867  -1.53379   10.8693  0.537344   391526.78
  16555.863  -1.5348   10.8707   0.5369333   393101.09
  16559.861  -1.53593   10.8663  0.536518   394857.34
  16563.859  -1.53691   10.8735  0.536081   396757.53
  16567.863  -1.53801   10.8759  0.53567   397972.62
  16572.230  -1.53919   10.8779  0.53517   399223.69
  16576.234  -1.54031   10.8743  0.534771   400518.69
  16580.607  -1.54153   10.8761  0.534275   402273.62
  16584.617  -1.54265   10.8731  0.533829    403832.5
  16588.992  -1.54383    10.87516  0.533347   405269.31
  16593.008  -1.54492   10.8762  0.532929   406569.06
  16597.387  -1.54609   10.8769  0.532431   408069.75
  16601.406   -1.547124   10.8765  0.531997   409078.34
  16605.793  -1.54824   10.8768  0.531499   410188.91
  16610.182  -1.54937   10.8821  0.531074   412082.41
  16614.570  -1.55055   10.8819  0.530616   413943.84
  16618.963  -1.55168   10.8809  0.530161   414776.19
  16622.992  -1.55272   10.8824  0.529727    416086.5
  16627.389  -1.55386   10.8843  0.529247   417219.75
  16631.789  -1.55498   10.8857  0.528766   418527.94
  16636.191  -1.55612   10.8909  0.528282   420195.03
  16640.963  -1.55745   10.8884  0.527762   421458.09
  16645.369  -1.55864   10.8859  0.527269   423437.06
  16649.779  -1.55984   10.8855  0.526804      423984
  16654.189  -1.56104   10.8884  0.526322   424643.87
  16658.604  -1.56218   10.8898  0.525839   426255.66
  16663.389  -1.56345   10.8864  0.525311   427242.41
  16667.809  -1.56462   10.8906  0.524893   428984.06
  16672.598   -1.565845   10.8923  0.524396   429472.69
  16677.021  -1.56698   10.8934  0.523919   430345.22
  16681.818  -1.56819   10.8939  0.523415   431706.72
  16686.246  -1.56929   10.8986   0.5229411   432598.12
  16691.047  -1.57058    10.89584  0.522402    432750.5
  16695.480  -1.57175   10.897  0.521987   434377.78
  16700.287   -1.572978   10.896  0.521455   434914.03
  16705.096  -1.57423   10.8983   0.5209024   435743.19
  16709.908  -1.57543   10.9092  0.520414   435822.28
  16714.723  -1.57698   10.8885   0.5198335   437414.34
  16719.170  -1.57799   10.8982   0.5193875   439873.31
  16723.990  -1.57924   10.9016  0.5189   440155.22
  16728.813  -1.58049    10.90175  0.518414   440663.09
  16733.639    -1.58171   10.8989  0.517895   441646.87
  16738.840  -1.58305   10.9042  0.517346   442653.59
  16743.670  -1.58424   10.9034  0.516834   443807.28
  16748.506  -1.5855   10.9039  0.516309   444082.87
  16753.342  -1.58669   10.9037  0.51581   444964.41
  16758.182  -1.58791   10.9075  0.515325   445923.87
  16763.396   -1.589262   10.9068  0.514754   446384.28
  16768.244   -1.590511   10.9064  0.514214   448046.66
  16773.094  -1.59175   10.9065  0.513688   448435.94
  16778.318  -1.59313   10.9069  0.513132   448712.16
  16783.174  -1.59435   10.9052  0.512605   449192.31
  16788.404  -1.59574   10.9083  0.512059   450222.41
  16793.641  -1.59704   10.9085  0.511481   450932.44
  16798.504  -1.5982   10.907  0.51083   452093.41
  16803.746  -1.59967   10.9066  0.510557   452209.31
  16808.990  -1.60091   10.9099  0.509949   452676.16
  16813.863  -1.60192   10.9366  0.509575   451111.94
  16819.115  -1.6038   10.8816  0.508781   452523.66
  16824.369  -1.60473   10.9092  0.508328   455276.31
  16829.627  -1.60606    10.90894   0.5077954   455572.91
  16834.887   -1.607429   10.9103  0.507263   456022.44
  16840.152  -1.60874   10.9106  0.506716   456432.91
  16845.420  -1.6101   10.9101  0.506218   455663.31
  16850.691  -1.61145    10.91324  0.505679   456088.66
  16855.965  -1.61281   10.9111  0.505112   456575.94
  16861.244  -1.61412   10.9102  0.504551   456690.16
  16866.525  -1.61544   10.9119  0.50403   457364.28
  16872.188  -1.61688   10.916   0.5034396   457682.37
  16877.477  -1.61823   10.9154  0.502949   457459.41
  16882.768  -1.61948   10.9173  0.502405   457907.37
  16888.441  -1.62083   10.9148  0.501816   457799.28
  16893.740  -1.62217    10.91045  0.501227   458519.09
  16899.041    -1.62355   10.9089  0.500702   459306.87
  16904.727  -1.62495   10.9099  0.500113   458909.59
  16910.416  -1.62633   10.907  0.499518   458867.22
  16915.729  -1.62765   10.9117  0.499   458988.81
  16921.424  -1.62899   10.916  0.498416   458697.34
  16926.744  -1.6303   10.9166  0.497902   459882.78
  16932.447  -1.63174   10.9143  0.497284   459015.19
  16938.154  -1.63314   10.9135  0.496702   458680.53
  16943.865  -1.63455   10.9152  0.496156   458665.78
  16949.582  -1.63591    10.91624   0.4956148      458656
  16955.301  -1.63729   10.9163  0.495013   458336.12
  16960.643  -1.63859   10.9175   0.4945025   458250.22
  16966.371  -1.63998   10.9198  0.493933   458409.22
  16972.100  -1.64135   10.9204  0.493397   457880.19
  16977.836  -1.6428   10.9177   0.4928033   457849.06
  16983.957  -1.64426   10.9217  0.492241   457772.91
  16989.699   -1.645586   10.9283  0.491668   457083.66
  16995.447   -1.646959   10.9243  0.491086   457061.37
  17001.197  -1.64825   10.9294  0.490526      457006