File: data/Sr/SrSO4_10K_02.xdi
# XDI/1.0 EXAFS Data Collector 1.1 AD.RGN
# Column.1: energy eV
# Column.2: mutrans
# Column.3: murefer
# Column.4: i0
# Beamline.name: SSRL 4-3
# Detector.I0: N2 15cm
# Detector.I1: N2+Ar 30cm
# Detector.If: Ar   (Lytle detector, using Rb Filter)
# Detector.I2: Ar
# Element.edge: K
# Element.symbol: Sr
# Mono.d_spacing: 1.920128
# Mono.name: Si(220)
# Mono.notes: (?) unfocussed, detuned 50%, clockwise at E=17000eV
# Sample.formula: SrSO4
# Sample.name: strontium sulfate
# Sample.prep: powder
# Sample.reference: SrCO3
# Sample.temperature: 10K
# Scan.start_time: 1995-06-16 08:48:56
# ///
#    Note: mono d_spacing is nominal!
#-------------
#   energy   mutrans       murefer      i0
  15699.933 0.0843014  -1.13145    125417.7
  15710.044 0.082915  -1.13308    124549.7
  15719.844 0.081466  -1.13444    123964.7
  15729.982 0.0799751  -1.13593    123463.7
  15740.136 0.0785327  -1.13748    122543.7
  15749.973 0.0771691  -1.13882    121891.7
  15760.152 0.0756249  -1.14035    119631.7
  15770.016  0.07426994  -1.14185    120307.7
  15779.891 0.0728518  -1.14316    120172.7
  15790.109 0.0713759  -1.14472    119519.7
  15800.011 0.0699802  -1.14608    118830.7
  15809.925  0.06851284  -1.14753    118297.7
  15819.854  0.06709871  -1.14897    117701.7
  15830.124 0.0656265  -1.15051    116995.7
  15840.076 0.0642364   -1.151916    116439.7
  15850.042 0.0628161  -1.15341    115736.7
  15860.021 0.0614062  -1.15476    115104.7
  15870.012 0.0600199  -1.15622    114506.7
  15880.018 0.0585969  -1.15767    113813.7
  15890.033 0.0571986   -1.159068    113187.7
  15900.063 0.0557664  -1.16051    112527.7
  15910.108 0.0543698  -1.16189    111974.7
  15920.164 0.0529853  -1.1634    111372.7
  15929.896 0.0516619  -1.16488    110853.7
  15939.978 0.0502168  -1.16632    110082.7
  15950.073 0.048844   -1.167736    109449.7
  15959.844 0.0475707  -1.16917    108842.7
  15969.964  0.04617364  -1.17057    108135.7
  15980.097 0.0448004  -1.17205    107676.7
  15989.906 0.0435259  -1.17352    106932.7
  16000.064 0.0421926  -1.1749    106317.7
  16009.897 0.0409701  -1.17632    105736.7
  16020.082 0.0396462  -1.17775    105156.7
  16029.942 0.0384624  -1.17922    104380.7
  16040.152 0.0372302  -1.18065    103801.7
  16050.036 0.0361385  -1.18198    103244.7
  16059.933 0.0350474  -1.18341    102655.7
  16069.841 0.0341665  -1.18472    101951.7
  16080.104 0.0333554  -1.18627    101218.7
  16090.039 0.0329971  -1.18764    100635.7
  16099.984 0.0331054  -1.18902    100127.7
  16109.943 0.0344962   -1.190344   99548.703
  16119.917 0.0393754  -1.19172   98872.703
  16121.293 0.0404601  -1.19197   98795.703
  16122.670 0.0417544  -1.19201   98753.703
  16123.702 0.0429076  -1.19212   98630.703
  16125.079 0.0449829  -1.19228   98519.703
  16126.112 0.0468399  -1.19253   98459.703
  16127.490 0.0500016   -1.192567   98529.703
  16128.867 0.0541965  -1.19284   98333.703
  16129.901 0.0582802  -1.19288   98340.703
  16131.278  0.06635616  -1.19297   98212.703
  16132.657 0.0790897  -1.19312   98082.703
  16133.690 0.0927919  -1.19306   98045.703
  16135.069  0.12019  -1.19291   98089.703
  16136.104  0.148388  -1.19295   97919.703
  16137.483  0.207238  -1.1925   97831.703
  16138.861  0.296549  -1.19254   97729.703
  16139.897  0.375672  -1.19264   97784.703
  16141.276  0.495527  -1.19245   97710.703
  16142.657   0.6301902  -1.19248   97500.703
  16143.692  0.729614  -1.19259   97524.703
  16145.073  0.829223   -1.193389   97452.703
  16146.108   0.8527675  -1.19409   97329.703
  16147.490  0.805236  -1.19465   97187.703
  16148.871  0.693315  -1.19472   97086.703
  16149.907  0.608873  -1.19484   97087.703
  16151.289  0.516128  -1.19474   97073.703
  16152.670  0.458318   -1.194918   96918.703
  16153.707  0.437237  -1.19498   96824.703
  16155.090  0.433207  -1.19505   193430.41
  16155.779  0.437882  -1.19519   193351.36
  16156.473  0.445679  -1.19532   193214.25
  16157.162  0.454963  -1.19547   193295.05
  16157.854  0.464083  -1.19559   193180.78
  16158.547  0.471508  -1.19578   193195.44
  16159.237  0.476478  -1.19589   193420.02
  16160.274  0.479208  -1.19603   193300.52
  16160.968  0.478316  -1.19617   193475.94
  16161.659  0.476104  -1.19624    193532.3
  16162.695  0.471504  -1.19633   193564.56
  16163.389  0.468972  -1.19643   193639.75
  16164.426  0.466287  -1.19658   193683.87
  16165.465  0.466283   -1.196602   193995.91
  16166.157  0.467936  -1.19665   194016.87
  16167.195  0.473878   -1.196736   194172.77
  16168.234  0.483647  -1.19683   194064.58
  16169.271    0.496515  -1.19697   193433.31
  16170.311  0.512098  -1.19725   193533.97
  16171.349  0.528869  -1.19733   194110.55
  16172.388  0.546979  -1.19734   194395.05
  16173.428  0.56548  -1.19751   195132.47
  16174.466  0.583632  -1.19768   196126.83
  16175.506  0.599235  -1.19785   196991.09
  16176.545  0.610891  -1.19802    197334.3
  16177.932  0.614627  -1.19838   197689.41
  16178.971  0.606377  -1.19849   197760.45
  16180.012  0.589308  -1.19865   198416.42
  16181.399  0.558546  -1.19877   198902.31
  16182.440  0.536483  -1.19879   199412.12
  16183.826  0.513205  -1.19888   199730.86
  16185.214  0.50254  -1.19896   200040.52
  16186.254  0.503065  -1.19908   200660.09
  16187.644  0.513839  -1.19927   201255.61
  16189.030  0.532327   -1.199457   201556.03
  16190.419  0.552246  -1.19984   202138.39
  16191.809  0.566222  -1.20012   202865.66
  16193.197  0.568073  -1.2004   203385.86
  16194.587  0.557115  -1.20066   203968.98
  16195.976   0.5372394  -1.20087   204693.03
  16197.366  0.514437  -1.20104      205198
  16198.755  0.493806  -1.20113   205858.89
  16200.493  0.47501  -1.20135    206546.7
  16201.884  0.466873  -1.20151   207438.44
  16203.274  0.462381  -1.20166   208078.09
  16205.013  0.458529  -1.20201   208901.69
  16206.405  0.45544  -1.2022   209877.19
  16208.145  0.451819  -1.20235   210413.62
  16209.884  0.45159  -1.20254   211323.97
  16211.276  0.455911  -1.20272   211996.25
  16213.016  0.468684  -1.20295   212957.45
  16214.757  0.487605  -1.20317   213737.58
  16216.499    0.507575  -1.20341   214566.62
  16218.240  0.524613  -1.20376   215414.59
  16219.981  0.53634  -1.20398   216264.48
  16221.725   0.5426388  -1.20424    217121.3
  16223.468  0.54441  -1.20443   217897.05
  16225.210  0.544226  -1.20472    218638.7
  16226.954  0.545292  -1.20493    219585.3
  16228.698  0.548876  -1.20515    220604.8
  16230.792  0.552513  -1.20546   221397.23
  16232.535  0.550056  -1.20568   221986.59
  16234.281  0.540491  -1.20596   222591.87
  16236.376   0.5231382  -1.20623   222718.08
  16238.122  0.508753  -1.20643    223559.2
  16240.217  0.494728  -1.20676   224244.25
  16242.313  0.484632  -1.20722   225083.22
  16244.061  0.478314  -1.20747   226213.12
  16246.159  0.472747  -1.20751   227923.94
  16248.257  0.469098  -1.20781   229892.67
  16250.354   0.4658702  -1.20811   232209.34
  16252.454  0.461802  -1.20843   234106.94
  16254.553  0.457781  -1.20869   236040.44
  16256.653  0.456316  -1.20895   237275.87
  16258.753  0.458868   -1.209321   238818.23
  16260.855  0.464383  -1.20964   239721.52
  16262.957  0.469806  -1.2099   240558.72
  16265.059  0.474375  -1.21016   241522.86
  16267.162  0.47932  -1.21043   242258.91
  16269.616  0.487656  -1.2108   242909.87
  16271.719  0.496283  -1.21119   243948.78
  16274.174  0.50582  -1.21163   245167.59
  16276.280  0.511541  -1.21189   246689.34
  16278.736  0.516736  -1.21223   248397.02
  16280.844  0.51993  -1.21242   250308.59
  16283.301  0.519269  -1.21279   252128.11
  16285.760  0.511834  -1.21315   253453.55
  16288.220  0.499907  -1.21351   255131.91
  16290.328  0.488695  -1.21382    256395.2
  16292.790  0.475953  -1.21406   257988.41
  16295.252  0.466085  -1.21441   259126.53
  16297.715  0.46123  -1.21477   260776.59
  16300.179  0.461166  -1.21508   262286.56
  16302.994  0.46336   -1.215482   263300.47
  16305.459  0.465332  -1.21581   264776.28
  16307.925  0.468279  -1.21615   266175.03
  16310.392  0.473067  -1.21645   267762.69
  16313.211   0.4792177  -1.21684   269071.28
  16315.680  0.482323  -1.21721   270716.81
  16318.148  0.480778   -1.217563   272073.25
  16320.972  0.472989  -1.21796   273531.62
  16323.442  0.465034  -1.21822   275334.91
  16326.268  0.460124  -1.21846   276510.09
  16329.092  0.46223  -1.21882   278196.25
  16331.564  0.46798  -1.21915   279760.28
  16334.393  0.474527  -1.2196   280972.28
  16337.221  0.478151  -1.21998   282408.19
  16340.050  0.479424  -1.22038      283877
  16342.881   0.4811012  -1.22084   285661.75
  16345.713  0.484384  -1.22127   287241.44
  16348.544  0.487436  -1.22163   288822.03
  16351.378  0.486985  -1.22206   290456.53
  16354.211  0.481673  -1.22247   292040.97
  16357.047   0.4731502  -1.22288   293699.34
  16360.238  0.462653  -1.22332   295424.62
  16363.076  0.453799  -1.22371   296888.84
  16365.914   0.4470974  -1.22407   298397.97
  16369.107  0.445203  -1.22454   299878.03
  16371.948  0.448464  -1.22494      301462
  16375.146  0.45449  -1.22536   302938.91
  16377.989  0.458813   -1.225793   304806.75
  16381.188  0.460839  -1.22626    306491.5
  16384.389  0.460539  -1.22675   308255.16
  16387.234  0.461042  -1.22711   310120.78
  16390.438  0.464463   -1.227559   311789.28
  16393.641  0.468807  -1.22801   313075.72
  16396.848  0.470173   -1.228469   314844.09
  16400.055  0.46749  -1.22891   316679.37
  16403.262  0.462345  -1.22935   318441.59
  16406.471  0.457537  -1.22983   320340.75
  16409.684  0.453598  -1.2303   321958.81
  16412.895  0.450559  -1.23074   323657.78
  16416.107  0.449405  -1.23118   325383.69
  16419.320    0.450502  -1.23163   327002.53
  16422.895  0.453064  -1.23214   328571.28
  16426.111  0.454049  -1.23253   330546.94
  16429.332  0.451596  -1.23299   332781.56
  16432.908  0.444831  -1.23349   333811.06
  16436.129  0.438289  -1.23396   335690.53
  16439.711  0.434799  -1.23443   337535.87
  16443.291  0.435089  -1.23496   339158.19
  16446.518  0.435538  -1.23543   340721.41
  16450.104  0.437066  -1.23588   342602.53
  16453.689  0.442515  -1.23639   344464.59
  16457.277  0.451196  -1.23688   345956.59
  16460.510  0.459782  -1.23734    347573.5
  16464.100  0.466441  -1.23781   349284.31
  16467.695  0.465429  -1.23838   351099.06
  16471.289  0.456892  -1.23889   352973.75
  16474.885  0.445686  -1.23943   354734.34
  16478.842   0.4348204  -1.24001   356566.87
  16482.441  0.429072  -1.24051   358132.31
  16486.043  0.427776  -1.241   359516.69
  16489.646  0.428531  -1.24154      360958
  16493.611  0.428974  -1.24208   362610.22
  16497.217  0.42877  -1.24254   364349.34
  16500.826  0.428927  -1.24306   365877.41
  16504.797  0.431387  -1.24362   367275.41
  16508.406  0.434068  -1.24409   369506.31
  16512.381   0.4345668  -1.24467   370876.16
  16516.357  0.432765  -1.24523   372718.91
  16519.975  0.430999  -1.24574   374765.59
  16523.953  0.429239  -1.24622   376428.19
  16527.936  0.427999  -1.24677   377904.72
  16531.920  0.427747  -1.24733   379506.16
  16535.906  0.42929  -1.24789   381447.53
  16539.531  0.431719  -1.24834   383716.84
  16543.520  0.432302  -1.24891   384976.06
  16547.875  0.43119  -1.24953   386529.19
  16551.867  0.429935  -1.25007   387878.28
  16555.863  0.427387  -1.25062   389206.25
  16559.861  0.424886  -1.2512   390924.16
  16563.859  0.422825  -1.25174      393086
  16567.863  0.420242  -1.25226   394738.75
  16572.230  0.417643  -1.25288   396073.44
  16576.234  0.414766  -1.25344   397910.06
  16580.607  0.410792   -1.254041   398932.59
  16584.617  0.408774  -1.2546   400811.03
  16588.992  0.409386  -1.25517   402311.41
  16593.008  0.412264  -1.25565   403457.72
  16597.387  0.415505  -1.2563   405014.94
  16601.406  0.416858  -1.25683   406465.06
  16605.793  0.416497  -1.25739   407638.16
  16610.182  0.415155  -1.258   408844.12
  16614.570  0.414418  -1.25862   410762.06
  16618.963  0.413619  -1.25921   412210.87
  16622.992  0.412582  -1.25975   413206.66
  16627.389  0.411571  -1.26033   415131.34
  16631.789  0.408238  -1.26093   416151.94
  16636.191  0.404064  -1.26149   418113.47
  16640.963  0.400155  -1.26215   419604.94
  16645.369  0.398154  -1.26274   420856.31
  16649.779  0.39953  -1.26331   422848.59
  16654.189  0.403321  -1.26394   423910.84
  16658.604  0.407199  -1.26448   425200.97
  16663.389  0.408132  -1.26517   426167.06
  16667.809  0.404684  -1.26572   427982.03
  16672.598  0.399851  -1.26637   428752.97
  16677.021  0.396295  -1.26693   430902.81
  16681.818  0.393862  -1.26755   431258.56
  16686.246  0.392155  -1.2681   432709.25
  16691.047  0.390006  -1.26872   433691.87
  16695.480  0.389276  -1.2693   435555.41
  16700.287  0.390986  -1.26991   436674.84
  16705.096  0.394145   -1.270565   437479.22
  16709.908  0.395832  -1.27114   438391.53
  16714.723  0.394982  -1.27181   438631.75
  16719.170  0.392328  -1.27236   441052.91
  16723.990   0.3886632  -1.27303   442608.97
  16728.813  0.386069  -1.2736   443863.97
  16733.639  0.384331  -1.27421   445161.91
  16738.840  0.383045   -1.274885   445473.75
  16743.670  0.383253  -1.27548    446812.5
  16748.506  0.382944  -1.27612   447816.19
  16753.342  0.382602  -1.27674   448881.81
  16758.182  0.382352  -1.27736   449995.34
  16763.396  0.382475   -1.278071   450607.81
  16768.244  0.382556  -1.27865   451716.19
  16773.094  0.380325  -1.27929    452693.5
  16778.318  0.377118  -1.27996   453283.72
  16783.174  0.374982  -1.28059   454747.87
  16788.404  0.373458  -1.28123   455164.94
  16793.641  0.372645  -1.2819   455926.94
  16798.504  0.371497  -1.28252   457460.87
  16803.746  0.3697   -1.283191   457889.72
  16808.990  0.368286  -1.28376   458554.47
  16813.863  0.368914   -1.284297   459221.16
  16819.115  0.371074  -1.28499   458156.78
  16824.369  0.371455  -1.28563   463615.31
  16829.627  0.369314   -1.286317   463428.78
  16834.887  0.36634  -1.28696   464064.16
  16840.152  0.364792  -1.28761   465119.47
  16845.420  0.365172  -1.28827   466100.72
  16850.691  0.365578  -1.28893   466275.84
  16855.965  0.364076  -1.28961   466905.94
  16861.244  0.36077  -1.29023   467619.94
  16866.525  0.357927  -1.29092   468137.87
  16872.188  0.355941  -1.29158   468754.72
  16877.477  0.355528  -1.29224   469605.47
  16882.768  0.355762  -1.29292   470172.16
  16888.441  0.354747  -1.29368   470026.78
  16893.740  0.353506  -1.2944   470419.31
  16899.041  0.353343  -1.29506   471527.78
  16904.727  0.352948  -1.29575   472303.19
  16910.416  0.352247  -1.29641    472425.5
  16915.729  0.351089  -1.29709   472721.72
  16921.424  0.349752  -1.2978   474025.87
  16926.744  0.34836  -1.29843   474678.97
  16932.447  0.346651  -1.29916   474548.97
  16938.154  0.344992   -1.299872   474883.87
  16943.865  0.344331  -1.30062   475501.72
  16949.582  0.34398  -1.30135    476082.5
  16955.301  0.343831  -1.302   476546.19
  16960.643  0.344123  -1.3027   477428.81
  16966.371  0.34323  -1.30342   477108.37
  16972.100  0.341033  -1.30414   477326.81
  16977.836  0.338086  -1.30486   477630.22
  16983.957  0.335163  -1.30562   477874.53
  16989.699   0.3332592  -1.3063   477750.75
  16995.447  0.331912  -1.30702   478182.91
  17001.197  0.331579  -1.30772      479522