File: data/Sr/SrSO4_rt_02.xdi
# XDI/1.0 EXAFS Data Collector 1.1 AD.RGN
# Column.1: energy eV
# Column.2: mutrans
# Column.3: mufluor
# Column.4: murefer
# Column.5: i0
# Beamline.name: SSRL 4-3
# Detector.I0: N2 15cm
# Detector.I1: N2+Ar 30cm
# Detector.If: Ar   (Lytle detector, using Rb Filter)
# Detector.I2: Ar
# Element.edge: K
# Element.symbol: Sr
# Mono.d_spacing: 1.920128
# Mono.name: Si(220)
# Mono.notes: (?) unfocussed, detuned 50%, clockwise at E=17000eV
# Sample.formula: SrSO4
# Sample.name: strontium sulfate
# Sample.prep: powder
# Sample.reference: SrCO3
# Sample.temperature: room temperature
# Scan.start_time: 1995-06-14 22:11:02
# ///
#    Note: mono d_spacing is nominal!
#-------------
#   energy   mutrans      mufluor    murefer      i0
  15699.933  -1.67757  0.767658  0.55753   139689.59
  15710.044  -1.67992   0.7597993  0.556375   138882.59
  15719.844  -1.68203  0.750754  0.555344   138167.59
  15729.982  -1.68411  0.741493  0.554264   137213.59
  15740.136  -1.6866   0.7333416  0.55307   136585.59
  15749.973  -1.68864  0.72339  0.55208   135720.59
  15760.152  -1.69103  0.715476  0.550886   133312.59
  15770.016  -1.69343  0.705749  0.550059   134336.59
  15779.891  -1.69528  0.697097  0.548834   133840.59
  15790.109  -1.69752  0.688024  0.547762   133028.59
  15800.011  -1.69966  0.677341  0.546646   132321.59
  15809.925  -1.702  0.670001  0.54553   131617.59
  15819.854  -1.70401  0.660319  0.544528    130786.6
  15830.124  -1.70646  0.651104  0.543374    130043.6
  15840.076  -1.70859  0.641584  0.542318    129379.6
  15850.042  -1.71079  0.634289  0.54123    128488.6
  15860.021  -1.71286  0.627049  0.540128    127734.6
  15870.012  -1.71512  0.618559  0.538997    127051.6
  15880.018  -1.71747  0.611508  0.537851    126359.6
  15890.033   -1.719583  0.603165   0.5367981    125673.6
  15900.063   -1.721788  0.596418  0.535745    124905.6
  15910.108  -1.72395  0.589418  0.534649    124181.6
  15920.164  -1.72609  0.583097  0.533553    123363.6
  15929.896  -1.72826  0.575757  0.532447    122570.6
  15939.978    -1.73046  0.569061  0.531384    121856.6
  15950.073   -1.732688  0.56447  0.530227    121010.6
  15959.844  -1.73467  0.558568  0.529192    120255.6
  15969.964   -1.736739  0.554756  0.527988    119569.6
  15980.097  -1.73908  0.55171  0.526977    118857.6
  15989.906  -1.741  0.547094  0.525912    117924.6
  16000.064  -1.7433     0.54598  0.524797    117346.6
  16009.897  -1.74532  0.544305  0.523738    116636.6
  16020.082  -1.74756  0.543837  0.522605    115725.6
  16029.942  -1.74944  0.545094   0.5215273    115150.6
  16040.152  -1.75146   0.5478414   0.5204434    114348.6
  16050.036  -1.75338  0.553046  0.519427    113630.6
  16059.933  -1.75524  0.56043  0.518363    112916.6
  16069.841  -1.75698   0.5734335   0.5172992    112143.6
  16080.104  -1.75862  0.590667  0.516181    111358.6
  16090.039  -1.75994   0.6188392  0.515256    110574.6
  16099.984  -1.76073  0.666744  0.514398    110112.6
  16109.943  -1.76035  0.753943  0.513768    109233.6
  16119.917  -1.7568  0.948073  0.513819    108607.6
  16121.293  -1.75601  0.982365  0.513937    108462.6
  16122.670  -1.75488   1.02977  0.514144    108406.6
  16123.702  -1.75391   1.07156  0.514289    108240.6
  16125.079  -1.75217   1.13905  0.514569    108254.6
  16126.112   -1.750515   1.20087  0.514993    108324.6
  16127.490  -1.74762   1.30313  0.515713    108110.6
  16128.867  -1.74385   1.4374  0.516777    107988.6
  16129.901    -1.74025   1.56643  0.517988    107911.6
  16131.278  -1.73317   1.80813  0.520757    107823.6
  16132.657   -1.722513   2.17608   0.5258264    107738.6
  16133.690  -1.71068   2.56679  0.531326    107713.6
  16135.069   -1.685294   3.39429  0.541819    107500.6
  16136.104  -1.65837   4.24333  0.550753    107496.6
  16137.483  -1.60381   5.89076  0.564244    107333.6
  16138.861  -1.52941   8.00258  0.579637    107266.6
  16139.897   -1.466418   9.68178  0.591838    107091.6
  16141.276  -1.37868   11.8631  0.608025    107010.6
  16142.657   -1.312128   12.9783  0.620696    106977.6
  16143.692  -1.28555   12.9859  0.62622    106915.6
  16145.073  -1.28116   13.0105  0.627929    106713.6
  16146.108  -1.29835   13.0099  0.625238    106717.6
  16147.490  -1.33631   12.8097  0.617217    106644.6
  16148.871  -1.37472   11.8479   0.6073993    106610.6
  16149.907  -1.39706   11.2917  0.599974    106453.6
  16151.289  -1.41769   10.7844  0.590966    106355.6
  16152.670   -1.428288   10.5279  0.584341    106182.6
  16153.707  -1.43242   10.434   0.5806938    106280.6
  16155.090  -1.43614    10.34591  0.577457    211947.2
  16155.779  -1.4376   10.3161  0.57654   211837.17
  16156.473   -1.439083   10.2828  0.575706   211717.08
  16157.162  -1.44048   10.2477  0.575196   211430.92
  16157.854  -1.44167   10.2231  0.574788    211447.7
  16158.547  -1.44258   10.2079  0.574462   211603.41
  16159.237  -1.44314   10.2016   0.5741352   212006.06
  16160.274  -1.44311   10.2119  0.573819   211972.66
  16160.968  -1.44255   10.2342  0.573729   212140.19
  16161.659  -1.44167   10.2635   0.5737555   212188.64
  16162.695  -1.43962   10.3256  0.574064   212106.05
  16163.389  -1.438   10.3697   0.5743951   212394.39
  16164.426  -1.43488   10.4634  0.575355   212623.66
  16165.465  -1.43127   10.5658   0.5763442   212638.87
  16166.157  -1.42899   10.6377   0.5770508   212543.02
  16167.195  -1.42539   10.7439  0.578056   212151.11
  16168.234  -1.42294    10.79977  0.578864   212288.12
  16169.271  -1.422   10.817  0.579831   212661.09
  16170.311  -1.42229   10.8054  0.580847   212967.98
  16171.349  -1.42331   10.7879  0.58213   213275.81
  16172.388  -1.42414   10.7827  0.583577   213894.59
  16173.428  -1.42382   10.8045  0.58512    214778.3
  16174.466  -1.42267   10.8509  0.586677   215281.94
  16175.506  -1.42077   10.9067  0.587882   215882.52
  16176.545  -1.41827     10.9781  0.589056   216261.05
  16177.932  -1.41428    11.08613  0.59017    216387.5
  16178.971  -1.41123   11.1772  0.590772   216613.89
  16180.012  -1.40823   11.2596  0.59098   217351.22
  16181.399   -1.404911    11.35174  0.590822   217768.48
  16182.440  -1.40348   11.3912  0.590442   218155.69
  16183.826  -1.40338   11.3978  0.589619   218799.83
  16185.214  -1.40551    11.35187  0.588703   219207.91
  16186.254  -1.40838   11.2846  0.587991   219769.92
  16187.644  -1.41333   11.1699  0.587001   220634.87
  16189.030  -1.41835   11.0545  0.585745   221132.75
  16190.419  -1.42252   10.9608  0.584369   221879.58
  16191.809  -1.42551   10.8971  0.582922   222239.34
  16193.197  -1.42738   10.8563  0.581421   222903.05
  16194.587  -1.42851   10.8362     0.58004   223588.67
  16195.976  -1.4297   10.8168  0.578941   224255.25
  16197.366  -1.43115   10.7882   0.5778241   225085.75
  16198.755  -1.43291   10.7579  0.576927    226085.2
  16200.493  -1.43517   10.7061  0.575906   226447.59
  16201.884  -1.43661     10.6804  0.575189   227233.91
  16203.274  -1.43766   10.6672  0.574575   228048.17
  16205.013   -1.438703   10.6568  0.574174   228997.36
  16206.405  -1.43943   10.6475  0.574063   229824.48
  16208.145  -1.44061   10.629  0.574321   230576.56
  16209.884  -1.44206   10.605  0.574794   231409.56
  16211.276  -1.44321   10.5873  0.575292    232216.5
  16213.016  -1.44437   10.5701  0.575846   233120.39
  16214.757  -1.44513   10.5655  0.57646    234106.2
  16216.499  -1.4453   10.5754  0.576829   234834.95
  16218.240  -1.44499   10.5985  0.577051   235933.64
  16219.981  -1.44433   10.6287  0.577047   236490.27
  16221.725  -1.44332   10.6694  0.577059   237451.83
  16223.468  -1.44182    10.72799  0.576884   238503.33
  16225.210  -1.43995   10.7919  0.576753   239027.77
  16226.954  -1.43772   10.8723  0.5766   240094.14
  16228.698  -1.4356   10.9532  0.57639   240648.45
  16230.792  -1.43364   11.0292  0.576344    241230.7
  16232.535  -1.43289   11.0643  0.576321   241862.89
  16234.281   -1.433184   11.0649   0.5763087   242334.02
  16236.376   -1.434719   11.019  0.576177   243366.08
  16238.122  -1.43694   10.9562   0.5759618   244601.06
  16240.217  -1.44047   10.8477  0.575528      246019
  16242.313  -1.44435   10.7417  0.574944   247499.87
  16244.061  -1.44739   10.6666  0.574347   249115.67
  16246.159  -1.45068   10.5972  0.573532   250943.42
  16248.257  -1.45326   10.559  0.572716   252602.11
  16250.354  -1.45506   10.5537  0.571973   254611.72
  16252.454  -1.45613   10.5565  0.571267   256456.28
  16254.553  -1.45665    10.57727  0.570642   257781.77
  16256.653  -1.45672   10.604  0.570102   259129.19
  16258.753  -1.45675   10.6203  0.56966   260504.56
  16260.855  -1.45713   10.6321   0.5693356   261394.86
  16262.957  -1.45778   10.6357  0.569096   262057.11
  16265.059  -1.45837   10.6313  0.568797   263253.28
  16267.162  -1.45895   10.6189  0.568598   264411.41
  16269.616  -1.45962   10.6063  0.568367   265839.44
  16271.719  -1.46015   10.5949  0.568156   266929.44
  16274.174  -1.46072   10.5892  0.567973   268409.34
  16276.280  -1.46116   10.5915  0.567786   270122.22
  16278.736   -1.461553   10.6109  0.567719      271531
  16280.844  -1.46171    10.62596  0.567642   273340.75
  16283.301  -1.46184   10.6495  0.567784   275198.41
  16285.760  -1.46184   10.6742  0.567889   276849.03
  16288.220  -1.46186   10.6928  0.56776   278450.56
  16290.328   -1.462061   10.6966  0.567498   279739.06
  16292.790   -1.462484   10.7053  0.567094   281552.47
  16295.252  -1.46315   10.7102  0.566606   282955.84
  16297.715  -1.46385   10.7028  0.566208   284398.12
  16300.179  -1.46456   10.7055  0.565931   285590.34
  16302.994  -1.46519    10.70995  0.565834   287157.53
  16305.459  -1.46559   10.7196  0.565831   288668.62
  16307.925  -1.46622   10.7242   0.5657332   290239.69
  16310.392  -1.46737   10.7134  0.565555   291926.66
  16313.211  -1.46913    10.67907  0.565276   293333.56
  16315.680  -1.47052   10.6682  0.565014   294987.41
  16318.148  -1.47164   10.6543  0.564637   296664.22
  16320.972  -1.47274   10.647  0.564152   298209.94
  16323.442  -1.47348   10.6454  0.5637   300096.59
  16326.268  -1.47413   10.6528   0.5631317   301476.19
  16329.092  -1.47448   10.6645  0.562581   303365.72
  16331.564  -1.47467   10.6742  0.562143   304858.22
  16334.393   -1.475142   10.6874  0.56163   306168.62
  16337.221   -1.475931   10.6867   0.5612099   307815.97
  16340.050  -1.47689   10.6819  0.56073   309338.25
  16342.881  -1.47789   10.6779  0.560255   311018.47
  16345.713  -1.47878   10.6785  0.559837   312977.62
  16348.544  -1.4797   10.676  0.559624   314417.72
  16351.378  -1.48062   10.6771  0.559513   316359.75
  16354.211  -1.48149    10.67617  0.559256   317978.72
  16357.047  -1.48229   10.6751  0.55913   319688.62
  16360.238  -1.48315   10.6796  0.559016   321181.47
  16363.076  -1.48383   10.6819  0.558897   323048.25
  16365.914  -1.48455   10.6834  0.558722   324820.97
  16369.107  -1.48536   10.6871  0.558453   326710.62
  16371.948  -1.48609   10.6905  0.558159   328384.22
  16375.146  -1.48693   10.6951  0.557738   330045.75
  16377.989  -1.48774   10.6905  0.557342   331815.22
  16381.188  -1.48876   10.6919  0.556822   333111.62
  16384.389  -1.48971   10.689   0.5563362   334678.97
  16387.234  -1.49055   10.689  0.555862   336188.22
  16390.438  -1.49144   10.6898  0.555393   337998.44
  16393.641   -1.492345   10.6929  0.554929   339925.59
  16396.848   -1.493243   10.6922  0.554512   341649.69
  16400.055  -1.49413   10.6927  0.554126   343349.72
  16403.262  -1.49517   10.6915  0.553789   345044.66
  16406.471  -1.49627   10.6841  0.553429   346678.56
  16409.684  -1.49734   10.681    0.553123   348316.41
  16412.895  -1.49837   10.6788  0.552808   350594.16
  16416.107  -1.49919   10.6823  0.552416   352160.87
  16419.320  -1.5   10.6863  0.552037   353518.53
  16422.895  -1.50095   10.6892  0.551578   355430.09
  16426.111  -1.50178   10.6943  0.551085   357456.62
  16429.332  -1.5027   10.694  0.550662   359445.09
  16432.908  -1.50383   10.6954  0.550209   361232.47
  16436.129  -1.50484   10.6881  0.549769   363060.81
  16439.711  -1.50597   10.6866  0.549298   365003.06
  16443.291  -1.50696   10.6835  0.548921   366205.28
  16446.518  -1.50785   10.6826  0.548587   368093.41
  16450.104  -1.50878   10.6906  0.548272    370275.5
  16453.689  -1.50961   10.6951  0.547969    372104.5
  16457.277   -1.510518   10.7  0.547644   373700.47
  16460.510   -1.511347   10.7003  0.547367   375140.34
  16464.100  -1.51221   10.7077  0.547003   376827.19
  16467.695  -1.51308   10.7085  0.546599   378573.94
  16471.289  -1.51403   10.7099  0.546163   380373.66
  16474.885  -1.51493   10.7122  0.545754   382686.28
  16478.842  -1.51594   10.7154  0.545272   383776.84
  16482.441   -1.516845   10.7201   0.5448371   385792.37
  16486.043  -1.51774   10.7202  0.54439   387303.81
  16489.646  -1.51867   10.7224  0.543898   389060.19
  16493.611  -1.51976   10.7214  0.543402    390777.5
  16497.217  -1.52075   10.7238  0.542971   392697.78
  16500.826  -1.52176   10.721  0.542537   395272.97
  16504.797  -1.52291   10.7199  0.54204   395455.09
  16508.406  -1.5239   10.7161  0.541619   397314.16
  16512.381  -1.52507   10.7152  0.541197   400018.19
  16516.357  -1.52626   10.7087  0.540729   400953.12
  16519.975   -1.527269   10.7068  0.54028      402877
  16523.953  -1.52832   10.7053  0.539847   404361.81
  16527.936  -1.5294   10.7059  0.539407   406140.56
  16531.920  -1.53035   10.7092  0.538999   407942.25
  16535.906  -1.53132   10.7153   0.5386049   409499.87
  16539.531  -1.53218   10.7192  0.538183   411332.44
  16543.520  -1.53318    10.72352   0.5377621   413018.97
  16547.875  -1.53431   10.7221  0.537231   413821.41
  16551.867  -1.53531   10.727  0.536799   415181.78
  16555.863  -1.53632   10.7274  0.536339   416046.09
  16559.861  -1.53741   10.7226  0.535877   418038.34
  16563.859  -1.53837   10.7308  0.535446   420331.53
  16567.863  -1.5395   10.7298  0.535016   421197.62
  16572.230  -1.54069    10.73168  0.534562   423305.69
  16576.234    -1.54179    10.73116  0.534121   424668.69
  16580.607  -1.54307   10.733  0.53359   426433.62
  16584.617  -1.54424    10.72969  0.533176    428172.5
  16588.992  -1.54547   10.7285  0.53266   429092.31
  16593.008  -1.54657   10.73  0.532188   431095.06
  16597.387  -1.54772   10.7325  0.531699   432824.75
  16601.406   -1.548808   10.7296  0.531277   433971.34
  16605.793  -1.54992   10.7286  0.530782   435263.91
  16610.182  -1.55104   10.7332  0.53034   436958.41
  16614.570  -1.55222   10.7342  0.529875   438761.84
  16618.963  -1.55339   10.7343  0.529412   439409.19
  16622.992  -1.55444   10.7335  0.528988    440079.5
  16627.389  -1.55559    10.73474  0.528485   442053.75
  16631.789  -1.55674   10.7326  0.527994   443433.94
  16636.191  -1.55789   10.7345  0.52751   445154.03
  16640.963  -1.55923   10.7311  0.526958   446488.09
  16645.369  -1.56042    10.72987  0.52648   447518.06
  16649.779  -1.56156   10.7318  0.525979      449210
  16654.189  -1.5627   10.7305  0.525497   450805.87
  16658.604   -1.563886   10.7316  0.525043   451942.66
  16663.389  -1.5652   10.7313  0.524551   452123.41
  16667.809  -1.56634   10.7342  0.524114   453531.06
  16672.598  -1.56758   10.732  0.52361   455014.69
  16677.021  -1.56871   10.7347  0.523175   455919.22
  16681.818   -1.569965   10.7303  0.522623   456087.72
  16686.246  -1.57106   10.7312  0.52216   457659.12
  16691.047  -1.57229   10.7319  0.52164    458733.5
  16695.480   -1.573468   10.7343     0.52121   459841.78
  16700.287  -1.57462   10.7348  0.520697   460799.03
  16705.096  -1.57587   10.7348  0.520162   461710.19
  16709.908  -1.57704    10.74359  0.519687   461866.28
  16714.723  -1.57855   10.727  0.519124   463084.34
  16719.170  -1.57955   10.7358  0.518689   464825.31
  16723.990   -1.580763   10.7368  0.518148   466011.22
  16728.813  -1.58202   10.7374  0.517642   467213.09
  16733.639  -1.58333   10.7376  0.517147   468400.87
  16738.840  -1.58466   10.7386  0.516598   468710.59
  16743.670  -1.58593   10.7379   0.5161192   469641.28
  16748.506   -1.587191   10.7382  0.515615   470919.87
  16753.342  -1.58843   10.7377  0.515093   471907.41
  16758.182  -1.5896   10.7353  0.514561   472692.87
  16763.396  -1.59102   10.7386  0.51405   472871.28
  16768.244  -1.59226   10.7386  0.513524   473284.66
  16773.094  -1.59351   10.7402  0.513034   474021.94
  16778.318  -1.59485    10.73605  0.512439   474543.16
  16783.174  -1.59609   10.7373  0.511905   475740.31
  16788.404  -1.59742   10.7331  0.511338   475987.41
  16793.641  -1.59878   10.7362  0.510813   476758.44
  16798.504  -1.60008   10.7365  0.510395   477642.41
  16803.746  -1.60142   10.737  0.509799   477364.31
  16808.990  -1.60274   10.7367  0.509264   478473.16
  16813.863  -1.60378   10.7637  0.508847   476549.94
  16819.115  -1.60567   10.7139  0.508114   478690.66
  16824.369  -1.6066   10.7373  0.507657   480793.31
  16829.627  -1.60793   10.7355  0.507093   481276.91
  16834.887  -1.60927   10.7337     0.50657   482366.44
  16840.152  -1.61058   10.7329  0.50602   481863.91
  16845.420  -1.61194   10.734  0.505463   482079.31
  16850.691  -1.61326   10.7343  0.504925   482346.66
  16855.965  -1.61451    10.73347  0.504387   482791.94
  16861.244  -1.61589   10.7312  0.503845   482827.16
  16866.525  -1.61721   10.7307  0.503284   483036.28
  16872.188  -1.61863     10.7281  0.502702   483498.37
  16877.477  -1.61993   10.7276  0.502162   483753.41
  16882.768  -1.62127    10.72879  0.501611   483543.37
  16888.441  -1.62268   10.7328   0.5010381   484043.28
  16893.740  -1.624   10.7322   0.5005021   484351.09
  16899.041  -1.62536   10.725  0.499944   483370.87
  16904.727   -1.626755   10.7279  0.499378   483706.59
  16910.416  -1.62815   10.7271   0.4987888   483595.22
  16915.729  -1.62936   10.7291  0.49827   484056.81
  16921.424  -1.6307   10.7285  0.497676   483924.34
  16926.744  -1.63201   10.7263  0.49711   484559.78
  16932.447  -1.63342   10.7262  0.496525   484869.19
  16938.154  -1.63482   10.7239   0.4959179   484708.53
  16943.865  -1.63623   10.7235  0.495348   484237.78
  16949.582  -1.63759   10.7238  0.494777      484766
  16955.301  -1.63897   10.7244  0.494195   485403.12
  16960.643  -1.64028   10.7215   0.4936154   485325.22
  16966.371  -1.64172   10.7188   0.4930299   484026.22
  16972.100  -1.64308   10.722  0.492461   483863.19
  16977.836  -1.64443   10.723  0.491894   484021.06
  16983.957  -1.64593   10.7257  0.491274   484496.91
  16989.699  -1.64724   10.7258  0.49072   483519.66
  16995.447  -1.64862   10.7246  0.490114   483492.37
  17001.197  -1.65   10.7225  0.489556      483384