File: data/Sr/SrSO4_rt_01.xdi
# XDI/1.0 EXAFS Data Collector 1.1 AD.RGN
# Column.1: energy eV
# Column.2: mutrans
# Column.3: mufluor
# Column.4: murefer
# Column.5: i0
# Beamline.name: SSRL 4-3
# Detector.I0: N2 15cm
# Detector.I1: N2+Ar 30cm
# Detector.If: Ar   (Lytle detector, using Rb Filter)
# Detector.I2: Ar
# Element.edge: K
# Element.symbol: Sr
# Mono.d_spacing: 1.920128
# Mono.name: Si(220)
# Mono.notes: (?) unfocussed, detuned 50%, clockwise at E=17000eV
# Sample.formula: SrSO4
# Sample.name: strontium sulfate
# Sample.prep: powder
# Sample.reference: SrCO3
# Sample.temperature: room temperature
# Scan.start_time: 1995-06-14 22:11:02
# ///
#    Note: mono d_spacing is nominal!
#-------------
#   energy   mutrans      mufluor    murefer      i0
  15699.933  -1.71536  0.753183  0.657926   151580.59
  15710.044  -1.71735  0.745744  0.655785   150508.59
  15719.844  -1.71903  0.73595  0.65377   149830.59
  15729.982  -1.72104  0.729134  0.651616   148965.59
  15740.136  -1.72294  0.71913  0.649544   148113.59
  15749.973  -1.72475  0.710786  0.647576   147353.59
  15760.152  -1.72674  0.703397  0.645271   144579.59
  15770.016  -1.72877  0.693398   0.6435961   145741.59
  15779.891  -1.73027  0.683969  0.641462   145152.59
  15790.109  -1.73216   0.6745456  0.639469   144372.59
  15800.011  -1.73393  0.666235  0.637366   143315.59
  15809.925  -1.73585  0.657097  0.635446   142546.59
  15819.854  -1.73759  0.64862  0.633484   141825.59
  15830.124  -1.73969  0.641358  0.631344   140908.59
  15840.076  -1.74143  0.631464  0.629525   140153.59
  15850.042  -1.74326  0.625351  0.627402   139305.59
  15860.021  -1.74514  0.615507  0.625473   138641.59
  15870.012  -1.74693  0.607979  0.623611   137754.59
  15880.018  -1.74892   0.6002174  0.621594   136808.59
  15890.033  -1.75077  0.593374  0.619668   136178.59
  15900.063  -1.75269  0.58616  0.617647   135249.59
  15910.108  -1.75452  0.578205  0.615808   134500.59
  15920.164  -1.75635  0.573174  0.613863   133641.59
  15929.896  -1.7581  0.566833  0.61205   132885.59
  15939.978  -1.76002  0.560511  0.610094   132052.59
  15950.073  -1.76204  0.555479  0.608179   131178.59
  15959.844  -1.76363  0.549732  0.606346    130450.6
  15969.964  -1.76552  0.54645  0.60429    129583.6
  15980.097   -1.767518  0.542918  0.602497    129028.6
  15989.906  -1.76928  0.539624   0.6006832    128105.6
  16000.064  -1.77108  0.536655  0.598752    127420.6
  16009.897  -1.77285  0.536398  0.59694    126631.6
  16020.082  -1.7747  0.534325  0.595149    125698.6
  16029.942  -1.77626  0.536033  0.593179    124861.6
  16040.152  -1.77803  0.539527  0.591344    124184.6
  16050.036  -1.77971  0.543766  0.589638    123453.6
  16059.933  -1.78134  0.551667  0.587797    122680.6
  16069.841  -1.78278  0.564271  0.586127    121689.6
  16080.104  -1.78419  0.582076  0.584316    120894.6
  16090.039  -1.78517  0.60974  0.582657    120180.6
  16099.984  -1.7856  0.655307   0.5810839    119357.6
  16109.943  -1.78509  0.740123  0.579767    118616.6
  16119.917   -1.781121  0.92918     0.57905    117815.6
  16121.293  -1.78011  0.963463  0.578538    117653.6
  16122.670  -1.77867   1.01057  0.578014    117481.6
  16123.702   -1.777476    1.049254  0.577536    117478.6
  16125.079  -1.77541   1.11913  0.577163    117244.6
  16126.112  -1.77353   1.17769  0.576926    117071.6
  16127.490  -1.77052   1.27959  0.576959    116963.6
  16128.867  -1.76647   1.41263  0.577472    116924.6
  16129.901   -1.762674   1.53647  0.57804    116822.6
  16131.278  -1.75536   1.7747  0.580196    116547.6
  16132.657  -1.7445   2.13526  0.584618    116562.6
  16133.690  -1.73245   2.51562  0.589506    116474.6
  16135.069  -1.70682   3.33239  0.599397    116273.6
  16136.104  -1.67955    4.173658  0.607701    116248.6
  16137.483  -1.62435   5.80152  0.620657    116058.6
  16138.861  -1.55034   7.85927  0.635296    115870.6
  16139.897   -1.486883   9.52075   0.6469346    115840.6
  16141.276  -1.39941   11.6756  0.662293    115608.6
  16142.657  -1.33317   12.0151  0.674293    115551.6
  16143.692  -1.30656   12.0202  0.679102    115502.6
  16145.073  -1.30213   12.0441  0.680377    115273.6
  16146.108  -1.31923   12.0612  0.677049    115110.6
  16147.490  -1.35709   12.074  0.668547    114988.6
  16148.871  -1.39477   11.647  0.658032    114778.6
  16149.907  -1.41684   11.1001  0.650451    114865.6
  16151.289  -1.43738   10.5961  0.640824    114669.6
  16152.670  -1.44772   10.3451  0.633671    114454.6
  16153.707  -1.45154   10.2527  0.62967    114356.6
  16155.090  -1.455    10.17637  0.625856    228382.2
  16155.779  -1.45622   10.1469  0.624062   228312.17
  16156.473  -1.45742   10.1163   0.6226187   228027.08
  16157.162  -1.45846   10.0878  0.621311   227846.92
  16157.854  -1.45942   10.0636  0.620145    227729.7
  16158.547  -1.46012   10.0451  0.619079   227582.41
  16159.237  -1.46033   10.0404  0.618108   227465.06
  16160.274  -1.46006   10.057  0.617096   227752.66
  16160.968  -1.45921    10.07541  0.616267   227529.19
  16161.659  -1.45802   10.1076  0.615531   227864.64
  16162.695  -1.45576   10.1719  0.615176   227628.05
  16163.389  -1.45397   10.2223  0.614929   227908.39
  16164.426   -1.450534   10.3107  0.61512   227904.66
  16165.465  -1.44676   10.4144  0.615652   227667.87
  16166.157  -1.44427   10.4873  0.615686   227442.02
  16167.195  -1.44042   10.5939  0.61603   227102.11
  16168.234  -1.43771   10.6473   0.6163462   227127.12
  16169.271   -1.436537   10.6664  0.616604   227265.09
  16170.311  -1.43665   10.6613  0.617121   227604.98
  16171.349  -1.43735   10.6456  0.617776   228023.81
  16172.388   -1.437969   10.6412  0.618559   228495.59
  16173.428  -1.43745   10.6688  0.619485    229468.3
  16174.466  -1.43607   10.7125  0.620498   230021.94
  16175.506  -1.43402   10.7727  0.621315   230422.52
  16176.545  -1.43134   10.8429  0.621892   230624.05
  16177.932  -1.42714    10.95621  0.622439    231024.5
  16178.971  -1.42391   11.0421  0.622512   231647.89
  16180.012  -1.4207   11.1272  0.622201   231885.22
  16181.399  -1.41714   11.2192  0.621419   232241.48
  16182.440  -1.41563   11.2626  0.620625   232895.69
  16183.826  -1.4153   11.2708  0.619298   233430.83
  16185.214  -1.41736   11.2235  0.617975   233809.91
  16186.254  -1.41995   11.1617  0.616733   234365.92
  16187.644  -1.42474   11.0506  0.615189   234948.87
  16189.030  -1.42945   10.9353  0.613531   235444.75
  16190.419  -1.43349   10.8435   0.6116677   235923.58
  16191.809  -1.43625   10.7812  0.609784   236374.34
  16193.197  -1.43795   10.7427   0.6078492   236996.05
  16194.587  -1.43902   10.7269  0.606125   237687.67
  16195.976  -1.44003   10.7056  0.604445   238378.25
  16197.366  -1.44137   10.6844  0.602995   239105.75
  16198.755  -1.44295   10.6485  0.60156    240125.2
  16200.493  -1.44512   10.6057   0.6001577   240612.59
  16201.884  -1.44635   10.581  0.599002   241471.91
  16203.274   -1.447171   10.5606   0.5979691   242343.17
  16205.013  -1.44811   10.5514   0.5971743   243240.36
  16206.405  -1.44869   10.5483  0.596733   244312.48
  16208.145  -1.44973   10.5295  0.596542   244889.56
  16209.884  -1.45105   10.5062   0.5966519   245603.56
  16211.276  -1.452   10.49   0.5967784    246527.5
  16213.016  -1.45308   10.4771  0.59704   247598.39
  16214.757  -1.45366   10.4719  0.597231    248269.2
  16216.499  -1.4537   10.4828  0.597237   249165.95
  16218.240  -1.45322   10.5074  0.597065   250149.64
  16219.981  -1.45242   10.5417  0.596723   251014.27
  16221.725  -1.45127   10.5822  0.596352   252033.83
  16223.468  -1.44969   10.6417  0.595892   252832.33
  16225.210  -1.44764   10.7108  0.595371   253718.77
  16226.954  -1.44529   10.7887  0.594877   254488.14
  16228.698  -1.44305   10.8678  0.594406   255102.45
  16230.792  -1.44093   10.942  0.593953    255484.7
  16232.535  -1.44011   10.9847  0.59366   256160.89
  16234.281  -1.44015   10.9856   0.5932885   256849.02
  16236.376  -1.44155   10.9354  0.592851   257821.08
  16238.122  -1.44362   10.8787  0.592384   259168.06
  16240.217  -1.44701   10.7776  0.591663      260662
  16242.313  -1.4508   10.6684  0.590715   262168.87
  16244.061  -1.45374   10.5913  0.589796   263523.69
  16246.159  -1.45688   10.5249  0.588717   265399.41
  16248.257   -1.459375   10.487  0.587746   267199.09
  16250.354  -1.46111   10.48  0.586678   269071.72
  16252.454  -1.46212   10.484  0.585656   270547.28
  16254.553  -1.46244   10.5072  0.584756   272299.78
  16256.653  -1.46239   10.5303  0.583883   273476.19
  16258.753  -1.46239   10.5543  0.583175   274920.56
  16260.855  -1.46266   10.5675   0.5826252   275957.87
  16262.957  -1.46313   10.5649  0.58209   277028.09
  16265.059  -1.46363   10.5655  0.581658   277981.28
  16267.162  -1.4641   10.5528  0.581124   278958.41
  16269.616  -1.4647   10.5395  0.580645   280310.44
  16271.719  -1.46515   10.5291  0.580249   281864.44
  16274.174  -1.46563   10.5248  0.579726   283449.34
  16276.280  -1.46596   10.5276  0.579322   285176.22
  16278.736    -1.46624   10.5423   0.5789637      287065
  16280.844  -1.46644   10.5641  0.578783   288712.75
  16283.301  -1.46643   10.5851  0.578605   290301.41
  16285.760  -1.46632   10.6076  0.578456   292067.03
  16288.220   -1.466246   10.6245  0.578144   293457.56
  16290.328  -1.46636   10.6391  0.577701   295448.06
  16292.790  -1.46673   10.6455  0.577072   296898.47
  16295.252  -1.46725   10.6478  0.576393   298516.84
  16297.715  -1.4679   10.646  0.575732   299812.12
  16300.179  -1.46853    10.64523  0.575302   301574.34
  16302.994  -1.46898   10.653  0.574994   303155.53
  16305.459  -1.46932   10.6625   0.5747915   304771.62
  16307.925  -1.4698   10.6641  0.574492   305947.69
  16310.392  -1.47093   10.6498    0.574141   307686.66
  16313.211  -1.47264   10.6271  0.573675   309217.56
  16315.680   -1.473898   10.61  0.573224   310961.41
  16318.148  -1.47493    10.60145  0.572678   312629.22
  16320.972  -1.47595   10.5938   0.5720439   314042.94
  16323.442  -1.47663   10.5913   0.5713992   315614.59
  16326.268  -1.47715   10.5978  0.570651   317128.19
  16329.092  -1.47739   10.6141  0.569924   319138.72
  16331.564  -1.47754   10.625  0.569355   321105.22
  16334.393  -1.47792   10.6325  0.568719   322797.62
  16337.221  -1.47863   10.6375  0.568098   324386.97
  16340.050  -1.4795     10.6283  0.567504   326057.25
  16342.881  -1.48037   10.6256  0.566939   327585.47
  16345.713  -1.48125   10.6241  0.566377   329110.62
  16348.544  -1.48206   10.6247  0.565915   330878.72
  16351.378  -1.48284   10.6217  0.565545   332708.75
  16354.211  -1.48363   10.6246  0.565222   334576.72
  16357.047  -1.48433   10.6227  0.56497   336724.62
  16360.238  -1.48517   10.6261  0.564792   338274.47
  16363.076  -1.48574   10.6299  0.564521   340039.25
  16365.914  -1.48641   10.633  0.564268   341641.97
  16369.107  -1.48711   10.6371  0.563885   343793.62
  16371.948  -1.4878   10.6384  0.563482   345265.22
  16375.146  -1.48859   10.6427  0.562957   346998.75
  16377.989  -1.48933   10.6441  0.562473   349077.22
  16381.188   -1.490291   10.6383  0.56182   350436.62
  16384.389  -1.49122   10.6381  0.561268   352269.97
  16387.234  -1.492   10.641  0.560696   353903.22
  16390.438  -1.49286   10.6405   0.5601038   355795.44
  16393.641  -1.49372   10.6414  0.559625   357497.59
  16396.848  -1.49458   10.6397  0.559128   359075.69
  16400.055   -1.495474   10.6421  0.558668   361047.72
  16403.262  -1.49641   10.6394  0.558203   363081.66
  16406.471  -1.49748   10.6323  0.557736   364902.56
  16409.684  -1.4985   10.6282   0.5573616   366652.41
  16412.895  -1.4994   10.6264  0.55694   368526.16
  16416.107  -1.50023   10.628  0.556546   370232.87
  16419.320  -1.50096   10.63  0.556063   372370.53
  16422.895  -1.50179   10.6347   0.5555003   374086.09
  16426.111  -1.50266   10.6353  0.555014   375790.62
  16429.332  -1.50354   10.6359   0.5544808   377524.09
  16432.908  -1.5046   10.6327  0.553937   378918.47
  16436.129  -1.5056    10.62847  0.553481   381000.81
  16439.711  -1.50666   10.6281  0.553006   383122.06
  16443.291  -1.50762   10.6261  0.552563   384838.28
  16446.518  -1.50847   10.6265  0.552145   386976.41
  16450.104  -1.50935   10.6334  0.551806    388685.5
  16453.689  -1.51014   10.6389  0.55149    390388.5
  16457.277  -1.51094   10.6446  0.551113   392311.47
  16460.510  -1.51165   10.6456  0.550743   394312.34
  16464.100  -1.51255   10.6499  0.550339   396153.19
  16467.695   -1.513415   10.651  0.549915   397950.94
  16471.289   -1.514392    10.65767  0.549451   399852.66
  16474.885  -1.51525   10.6555  0.548961   401746.28
  16478.842  -1.51622   10.6582  0.548491   403656.84
  16482.441  -1.51707   10.6631  0.548012   404876.37
  16486.043  -1.51796   10.6628  0.547505   406717.81
  16489.646  -1.51885   10.6619  0.547033   408571.19
  16493.611  -1.51991   10.6652  0.546521    410021.5
  16497.217    -1.52084   10.6659  0.546058   411516.78
  16500.826  -1.52186   10.6679  0.545654   413410.97
  16504.797  -1.52301   10.6682  0.545194   414442.09
  16508.406  -1.52401   10.6648  0.544786   416184.16
  16512.381  -1.52522   10.6604  0.544293   417388.19
  16516.357  -1.52637   10.6589  0.543836   419263.12
  16519.975  -1.52739    10.65804   0.5434053      421516
  16523.953  -1.52843    10.65997  0.542936   423366.81
  16527.936  -1.52945   10.6607  0.542533   425058.56
  16531.920  -1.53045   10.6648  0.542074   426882.25
  16535.906  -1.53135   10.6653  0.541596   428656.87
  16539.531  -1.53229   10.6622  0.541189   431106.44
  16543.520   -1.533236   10.6605   0.5407025   432382.97
  16547.875  -1.53434   10.6638  0.540184   433670.41
  16551.867  -1.53531   10.665  0.539713   435161.78
  16555.863  -1.5363   10.6639  0.539237   436233.09
  16559.861  -1.53743   10.6573   0.5388329   437821.34
  16563.859  -1.53837   10.6673   0.5384022   439998.53
  16567.863  -1.53943   10.6714  0.537978   442021.62
  16572.230  -1.54058   10.6684  0.537436   443666.69
  16576.234  -1.54162   10.6665  0.536976   445476.69
  16580.607  -1.54283   10.6663  0.536488   446734.62
  16584.617  -1.54388   10.6636   0.5360255    448112.5
  16588.992  -1.54508   10.6616  0.535516   449885.31
  16593.008  -1.54619   10.6634  0.535069   451587.06
  16597.387  -1.54737   10.6639  0.534607   452922.75
  16601.406  -1.54847   10.6639  0.534144   453618.34
  16605.793  -1.54956    10.66547  0.533712   455594.91
  16610.182  -1.5507   10.6707  0.53326   457481.41
  16614.570  -1.55191   10.669  0.532778   458797.84
  16618.963  -1.55307   10.6669  0.532314   460429.19
  16622.992  -1.5541   10.671  0.531897    461222.5
  16627.389  -1.55523   10.6682  0.531371   462863.75
  16631.789  -1.5564   10.6684  0.530879   464021.94
  16636.191  -1.55748   10.6696  0.530384   465349.03
  16640.963  -1.5588   10.6677   0.5298705   467215.09
  16645.369  -1.56   10.6686  0.529393   468275.06
  16649.779  -1.5612   10.6669  0.528892      470198
  16654.189   -1.562337    10.66488  0.528372   471285.87
  16658.604  -1.56355   10.6657  0.527905   472305.66
  16663.389  -1.56475   10.6693   0.5273988   473710.41
  16667.809  -1.56588   10.6691  0.526913   474910.06
  16672.598  -1.56716   10.6627  0.526376   476355.69
  16677.021  -1.56824   10.6662   0.5259088   477534.22
  16681.818   -1.569438   10.6771  0.525441   479091.72
  16686.246  -1.57058   10.678    0.524945   480871.12
  16691.047  -1.57181   10.6778  0.524415    481094.5
  16695.480  -1.57298   10.6759  0.523971   482142.78
  16700.287   -1.574235    10.67719  0.523452   483154.03
  16705.096  -1.5755    10.68185  0.522899   484811.19
  16709.908  -1.57668   10.6938  0.522442   484391.28
  16714.723  -1.57824   10.6723  0.521806   485457.34
  16719.170  -1.57922   10.6771  0.521333   487835.31
  16723.990  -1.5805   10.6799  0.520812   488983.22
  16728.813  -1.58178   10.681  0.520302   489774.09
  16733.639  -1.58307   10.6808  0.519756   490656.87
  16738.840  -1.58444   10.6799  0.519228   490748.59
  16743.670  -1.58572   10.6801  0.518693   491063.28
  16748.506  -1.58697   10.6801  0.518153   491831.87
  16753.342   -1.588158   10.6806   0.5176371   492612.41
  16758.182  -1.58943   10.6787    0.517087   494133.87
  16763.396  -1.59074    10.68047  0.516538   494931.28
  16768.244  -1.59203   10.6794  0.516006   495566.66
  16773.094  -1.59329   10.6799   0.5154452   495714.94
  16778.318  -1.59473   10.679   0.5148683   496222.16
  16783.174  -1.59606    10.68207  0.514352   497090.31
  16788.404  -1.59743   10.6801  0.513733   497679.41
  16793.641  -1.59879   10.6838  0.513205   498386.44
  16798.504  -1.60006   10.6857  0.512657   499131.41
  16803.746  -1.60143   10.6861  0.512085   499686.31
  16808.990  -1.6028   10.6875  0.511483   500050.16
  16813.863  -1.60385   10.712  0.510933   497125.94
  16819.115  -1.60579   10.6626  0.510388   498962.66
  16824.369  -1.60677   10.6883  0.509898   502063.31
  16829.627  -1.60807   10.6858  0.509292   502325.91
  16834.887  -1.60942   10.6858  0.508694   502026.44
  16840.152  -1.61069   10.6863  0.508106   502908.91
  16845.420  -1.61202   10.6842  0.507532   502957.31
  16850.691  -1.61332   10.6858  0.50695   503409.66
  16855.965  -1.61459   10.6856  0.506387   503716.94
  16861.244  -1.61592   10.6841  0.505798   503989.16
  16866.525  -1.61722   10.6876  0.505246   505529.28
  16872.188  -1.61869    10.68596  0.50458   505524.37
  16877.477  -1.61996   10.6839   0.5040125   505676.41
  16882.768  -1.62127   10.686  0.503452   505971.37
  16888.441  -1.62264   10.6836  0.502826   506418.28
  16893.740  -1.62395   10.6869  0.502269   506550.09
  16899.041  -1.62528    10.68274  0.501659   506692.87
  16904.727  -1.62669   10.6848  0.501059   506391.59
  16910.416  -1.62799   10.6857  0.500418   507304.22
  16915.729  -1.62932   10.6856  0.499825   507418.81
  16921.424   -1.630678   10.6905  0.499211   507532.34
  16926.744  -1.63204   10.6886  0.49865   507116.78
  16932.447   -1.633454    10.68564  0.498025   507631.19
  16938.154   -1.634875   10.6874  0.497403   507768.53
  16943.865  -1.63627   10.6858  0.496776   507439.78
  16949.582   -1.637611   10.69  0.49618      507960
  16955.301  -1.63904   10.6892  0.495593   507415.12
  16960.643  -1.6403   10.6893  0.494991   507646.22
  16966.371  -1.64166   10.688  0.494371   507942.22
  16972.100  -1.64304    10.69093  0.493762   507489.19
  16977.836  -1.64442   10.6909  0.493144   506373.06
  16983.957  -1.64586   10.6946   0.4925024   506047.91
  16989.699  -1.6472   10.699  0.491924   506107.66
  16995.447  -1.64859   10.7005  0.491325   506115.37
  17001.197  -1.64991   10.7027   0.4907294      505442