File: data/Sr/SrSO4_10K_03.xdi
# XDI/1.0 EXAFS Data Collector 1.1 AD.RGN
# Column.1: energy eV
# Column.2: mutrans
# Column.3: murefer
# Column.4: i0
# Beamline.name: SSRL 4-3
# Detector.I0: N2 15cm
# Detector.I1: N2+Ar 30cm
# Detector.If: Ar   (Lytle detector, using Rb Filter)
# Detector.I2: Ar
# Element.edge: K
# Element.symbol: Sr
# Mono.d_spacing: 1.920128
# Mono.name: Si(220)
# Mono.notes: (?) unfocussed, detuned 50%, clockwise at E=17000eV
# Sample.formula: SrSO4
# Sample.name: strontium sulfate
# Sample.prep: powder
# Sample.reference: SrCO3
# Sample.temperature: 10K
# Scan.start_time: 1995-06-16 08:48:56
# ///
#    Note: mono d_spacing is nominal!
#-------------
#   energy   mutrans       murefer      i0
  15699.933 0.0843543  -1.13212    124056.7
  15710.044  0.08290458  -1.13354    123370.7
  15719.844 0.0814962  -1.13508    122655.7
  15729.982 0.0800214  -1.13665    122081.7
  15740.136 0.0785653  -1.13814    121528.7
  15749.973 0.0770594  -1.13942    120831.7
  15760.152 0.0756292  -1.14101    118430.7
  15770.016 0.0742571  -1.14249    119293.7
  15779.891 0.0728684  -1.14383    119121.7
  15790.109  0.07135494   -1.145304    118522.7
  15800.011 0.0699564  -1.14677    117685.7
  15809.925 0.0685633  -1.14824    117081.7
  15819.854 0.0670993  -1.14964    116529.7
  15830.124 0.0656393  -1.15125    115997.7
  15840.076 0.0641738  -1.15253    115262.7
  15850.042 0.0627871  -1.15395    114539.7
  15860.021 0.0613652  -1.15538    114120.7
  15870.012 0.0599787  -1.1569    113380.7
  15880.018 0.0585221  -1.15833    112758.7
  15890.033  0.05714336  -1.15975    112159.7
  15900.063  0.05571718  -1.16118    111535.7
  15910.108 0.0543333  -1.16261    110856.7
  15920.164 0.0529147  -1.16413    110236.7
  15929.896 0.05158  -1.16556    109652.7
  15939.978   0.0502067  -1.167    109103.7
  15950.073 0.0487716  -1.16845    108410.7
  15959.844 0.0474701  -1.16979    107773.7
  15969.964 0.0460749     -1.1713    107029.7
  15980.097 0.0447499  -1.17271    106561.7
  15989.906 0.04349  -1.17417    105820.7
  16000.064 0.0421096  -1.17561    105358.7
  16009.897 0.0408756  -1.17704    104802.7
  16020.082 0.0395512  -1.17852    104140.7
  16029.942 0.0383797  -1.17987    103485.7
  16040.152 0.0371149  -1.18132    102855.7
  16050.036 0.0360344  -1.1827    102322.7
  16059.933 0.0349705  -1.18417    101771.7
  16069.841 0.0340519  -1.18555    100974.7
  16080.104 0.0332795  -1.18705    100345.7
  16090.039 0.0328706  -1.18845   99841.703
  16099.984 0.033068  -1.18982   99101.703
  16109.943 0.0344844  -1.19125   98549.703
  16119.917 0.0393595   -1.192529   97823.703
  16121.293 0.0404633  -1.19261   97804.703
  16122.670 0.0417485  -1.19283   97764.703
  16123.702 0.0429288  -1.19288   97797.703
  16125.079 0.044979  -1.19304   97595.703
  16126.112 0.0468784  -1.19316   97594.703
  16127.490 0.0501318  -1.19334   97400.703
  16128.867 0.0545098  -1.19368   97406.703
  16129.901 0.0585838  -1.19378   97353.703
  16131.278 0.0667311  -1.19379   97322.703
  16132.657 0.0796696  -1.19394   97187.703
  16133.690 0.0939194  -1.19401   97089.703
  16135.069   0.1216903  -1.19367   97021.703
  16136.104  0.150024  -1.19369   97015.703
  16137.483  0.210356  -1.19324   97032.703
  16138.861  0.301089   -1.193303   96848.703
  16139.897  0.380082  -1.19335   96802.703
  16141.276  0.500365  -1.19322   96899.703
  16142.657  0.636105  -1.19336   96518.703
  16143.692  0.734594  -1.19347   96608.703
  16145.073  0.831703  -1.19433   96527.703
  16146.108  0.852815  -1.19485   96489.703
  16147.490  0.80151  -1.19557   96353.703
  16148.871  0.689578   -1.195731   96130.703
  16149.907  0.605292  -1.19563   96185.703
  16151.289  0.513043  -1.19564   96171.703
  16152.670  0.45677  -1.19582   96097.703
  16153.707  0.436577  -1.19585   95954.703
  16155.090  0.433238  -1.19587   191735.41
  16155.779  0.438146  -1.19596   191626.36
  16156.473  0.445959  -1.19608   191653.25
  16157.162  0.455343  -1.19635   191910.05
  16157.854  0.464259  -1.19647   191822.78
  16158.547   0.4715346  -1.19659   191782.44
  16159.237   0.4765504  -1.19682   191788.02
  16160.274  0.479169  -1.19693   191928.52
  16160.968  0.478213  -1.19705   191892.94
  16161.659  0.475991  -1.19718    192129.3
  16162.695  0.471446  -1.19726   192085.56
  16163.389  0.468914  -1.19738   192426.75
  16164.426   0.4662303  -1.19759   192443.87
  16165.465  0.466284  -1.19755   192449.91
  16166.157  0.468009  -1.19761   192724.87
  16167.195  0.473993  -1.19767   192702.77
  16168.234  0.483847  -1.19776   192818.58
  16169.271  0.496841  -1.19788   192104.31
  16170.311  0.512476  -1.19811   192284.97
  16171.349   0.5293831  -1.19823   192646.55
  16172.388  0.547383  -1.19838   193267.05
  16173.428   0.5658564  -1.19855   193640.47
  16174.466  0.583941  -1.19866   194632.83
  16175.506  0.599637  -1.19879   195236.09
  16176.545  0.611093  -1.19906    195631.3
  16177.932  0.614392   -1.199431   195977.41
  16178.971  0.606059  -1.19948   196480.45
  16180.012  0.588704  -1.19958   196862.42
  16181.399  0.557911  -1.19968   197076.31
  16182.440  0.535884  -1.19971   197628.12
  16183.826  0.512813  -1.1998   198167.86
  16185.214  0.502373  -1.19997   198605.52
  16186.254  0.503099  -1.20008   199165.09
  16187.644   0.5140579  -1.20023   199607.61
  16189.030  0.532609  -1.20046   200250.03
  16190.419  0.552432  -1.20084   200975.39
  16191.809  0.566262  -1.20106   201691.66
  16193.197  0.567965  -1.20142   202186.86
  16194.587  0.55679  -1.20168   202853.98
  16195.976  0.536844  -1.2018   203502.03
  16197.366  0.514014  -1.20203      204128
  16198.755  0.493362  -1.20217   204761.89
  16200.493  0.474663  -1.20237    205444.7
  16201.884  0.466665  -1.20251   206363.44
  16203.274  0.462224   -1.202819   206896.09
  16205.013  0.458396  -1.20295   207562.69
  16206.405  0.455334  -1.20328   208338.19
  16208.145  0.451712  -1.20337   209415.62
  16209.884   0.4515647  -1.20357   210083.97
  16211.276  0.45596  -1.20371   210771.25
  16213.016  0.468853  -1.20383   211526.45
  16214.757  0.487848  -1.20416   212647.58
  16216.499  0.507795  -1.20444   213387.62
  16218.240  0.524823  -1.20471   214332.59
  16219.981  0.536416  -1.20505   215205.48
  16221.725  0.54262  -1.20525    215983.3
  16223.468  0.544337  -1.20551   216740.05
  16225.210  0.544142   -1.205728    217584.7
  16226.954  0.54522   -1.205906    218736.3
  16228.698  0.54885  -1.20617    219577.8
  16230.792   0.5525062  -1.20648   220426.23
  16232.535  0.549941  -1.20673   221139.59
  16234.281  0.54039  -1.20694   221607.87
  16236.376  0.522795  -1.2073   221589.08
  16238.122  0.508426  -1.20751    222317.2
  16240.217  0.494581  -1.20782   223037.25
  16242.313  0.48448   -1.208175   223604.22
  16244.061  0.478303   -1.208416   224965.12
  16246.159  0.472728  -1.20873   226457.94
  16248.257  0.469054  -1.20895   228416.67
  16250.354  0.465774  -1.20918   230893.34
  16252.454  0.461739  -1.20949   232982.94
  16254.553  0.457743  -1.20978   234694.44
  16256.653   0.4563713  -1.21009   236308.87
  16258.753  0.459086  -1.21038   237487.23
  16260.855  0.464437  -1.21058   238566.52
  16262.957  0.469827  -1.21076   239709.72
  16265.059  0.474335  -1.21107   240455.86
  16267.162  0.479287  -1.21138   241399.91
  16269.616   0.4876187  -1.21173   241786.87
  16271.719  0.496198  -1.21211   242991.78
  16274.174  0.505754  -1.21243   243990.59
  16276.280  0.511513  -1.21277   245543.34
  16278.736  0.51669  -1.21307   247192.02
  16280.844   0.5198414  -1.21332   249275.59
  16283.301  0.519217  -1.21369   250957.11
  16285.760  0.511827  -1.214   252602.55
  16288.220  0.499876  -1.21436   254045.91
  16290.328  0.488721  -1.21464    255324.2
  16292.790   0.4759602  -1.21497   256670.41
  16295.252   0.4660183  -1.2153   258194.53
  16297.715  0.46121  -1.21559   259732.59
  16300.179  0.461186  -1.21596   261116.56
  16302.994  0.46338   -1.216348   262504.47
  16305.459  0.465326  -1.21667   264077.28
  16307.925  0.468258  -1.21699   265096.03
  16310.392  0.473106  -1.21729   266946.69
  16313.211  0.479251  -1.21771   268426.28
  16315.680  0.482332    -1.21809   270051.81
  16318.148  0.480724  -1.21843   271489.25
  16320.972  0.472937  -1.21885   272910.62
  16323.442   0.4651483  -1.21915   274348.91
  16326.268  0.460241  -1.21954   275728.09
  16329.092   0.4624225  -1.21995   277581.25
  16331.564  0.468109  -1.22026   278806.28
  16334.393  0.474639  -1.22064   280391.28
  16337.221  0.478236   -1.221074   282182.19
  16340.050  0.479543  -1.22149      283683
  16342.881  0.481183  -1.2219   285521.75
  16345.713  0.484505  -1.22229   287047.44
  16348.544  0.48758  -1.22272   288502.03
  16351.378  0.487134  -1.22311   289876.53
  16354.211  0.481835   -1.223448   291524.97
  16357.047   0.4733065  -1.22393   292984.34
  16360.238  0.462706  -1.22437   294833.62
  16363.076  0.453948  -1.22482   296370.84
  16365.914  0.447218  -1.22524   297870.97
  16369.107  0.445414  -1.22561   299537.03
  16371.948  0.448692  -1.22607      301161
  16375.146  0.454636  -1.22646   302787.91
  16377.989  0.458963  -1.22689   304703.75
  16381.188  0.460961  -1.22736    306216.5
  16384.389  0.460708  -1.22782   307727.16
  16387.234  0.461201  -1.22818   309489.78
  16390.438  0.464589  -1.22864   311109.28
  16393.641  0.468908  -1.22904   312867.72
  16396.848  0.470291  -1.22952   314673.09
  16400.055  0.467624  -1.22997   316466.37
  16403.262  0.462462   -1.230404   317940.59
  16406.471  0.457617  -1.23084   319539.75
  16409.684  0.453687  -1.23128   321250.81
  16412.895  0.450686  -1.23174   323097.78
  16416.107  0.449528  -1.23218   324890.69
  16419.320  0.450586  -1.2326   326364.53
  16422.895  0.453149   -1.233109   327913.28
  16426.111  0.454122  -1.23359   329408.94
  16429.332  0.451678  -1.23401   331501.56
  16432.908  0.444897  -1.23454   332775.06
  16436.129  0.438391  -1.23497   334802.53
  16439.711  0.434865  -1.23545   336309.87
  16443.291  0.43517  -1.236   338053.19
  16446.518  0.435656  -1.23642   339775.41
  16450.104  0.437106  -1.23689   341662.53
  16453.689  0.442562  -1.23736   343291.59
  16457.277  0.451237  -1.23788   344764.59
  16460.510  0.459825  -1.23831    346839.5
  16464.100  0.466586  -1.23883   347957.31
  16467.695  0.465492  -1.23935   349780.06
  16471.289  0.456921  -1.23989   351660.75
  16474.885   0.4457165  -1.24037   353825.34
  16478.842  0.434863  -1.24089   355109.87
  16482.441  0.429094  -1.24136   356991.31
  16486.043  0.42779  -1.24182   358857.69
  16489.646  0.428527  -1.24233      360786
  16493.611  0.428976  -1.24287   362006.22
  16497.217  0.428787  -1.24336   363526.34
  16500.826  0.428952    -1.24383   365152.41
  16504.797  0.431392  -1.24437   366458.41
  16508.406  0.43402  -1.24489   368999.31
  16512.381  0.43456  -1.24542   370214.16
  16516.357  0.43276  -1.24598   372434.91
  16519.975  0.431006   -1.246459   373692.59
  16523.953  0.429273  -1.24704   375536.19
  16527.936  0.427984  -1.24755   377171.72
  16531.920  0.427699  -1.24807   378928.16
  16535.906  0.429257  -1.24861   380545.53
  16539.531  0.431704  -1.24911   382586.84
  16543.520   0.4322396  -1.24969   384345.06
  16547.875  0.431136  -1.25025   385637.19
  16551.867  0.429875  -1.25082   387103.28
  16555.863  0.427374  -1.2514   388353.25
  16559.861   0.4248464  -1.25192   389711.16
  16563.859  0.422797  -1.25241      391947
  16567.863  0.420268  -1.253   393165.75
  16572.230  0.417615  -1.2536   394718.44
  16576.234  0.414783  -1.25413   396448.06
  16580.607  0.410811  -1.25472   397816.59
  16584.617  0.408749  -1.25528   399523.03
  16588.992  0.409373  -1.25582   401491.41
  16593.008  0.412247  -1.25635   402860.72
  16597.387  0.415492  -1.25695   404209.94
  16601.406  0.416873  -1.25748   405459.06
  16605.793  0.416511  -1.25803   406623.16
  16610.182  0.415121  -1.25862   408691.12
  16614.570  0.414356  -1.25915   410623.06
  16618.963  0.413553  -1.25973   412110.87
  16622.992  0.412587  -1.26027   413421.66
  16627.389  0.411596  -1.26083   414358.34
  16631.789  0.408307   -1.261436   416527.94
  16636.191  0.404125   -1.262053   417484.47
  16640.963  0.400209  -1.26271   418912.94
  16645.369  0.398204  -1.26326   421154.31
  16649.779  0.399659  -1.26388   422072.59
  16654.189  0.403424  -1.26447   424090.84
  16658.604  0.407241  -1.26503   425529.97
  16663.389  0.408171  -1.26564   426853.06
  16667.809    0.404763  -1.26621   428203.03
  16672.598  0.399902  -1.26684   429072.97
  16677.021  0.396391  -1.26744   430231.81
  16681.818  0.394009  -1.26811   431772.56
  16686.246  0.392302  -1.26863   433196.25
  16691.047  0.390133  -1.26928   434312.87
  16695.480  0.389487  -1.26981   435530.41
  16700.287  0.39113  -1.27039   436589.84
  16705.096  0.394278  -1.27101   437656.22
  16709.908  0.395993  -1.27156   438457.53
  16714.723  0.395032  -1.27214   439296.75
  16719.170  0.392417  -1.27271   441700.91
  16723.990  0.388744  -1.27333   442862.97
  16728.813  0.386221  -1.27396   444141.97
  16733.639  0.384478  -1.27457   445322.91
  16738.840   0.3831553  -1.27522   445811.75
  16743.670  0.383435  -1.27579    447593.5
  16748.506    0.383081    -1.27643   448436.19
  16753.342  0.382794  -1.27701   449759.81
  16758.182  0.382506  -1.2776   450919.34
  16763.396  0.382536  -1.27823   452089.81
  16768.244  0.382679  -1.27885   453210.19
  16773.094  0.380484  -1.27946    454137.5
  16778.318  0.377233  -1.28015   454923.72
  16783.174  0.375053  -1.2807   455898.87
  16788.404  0.373568  -1.28134   456869.94
  16793.641  0.372754  -1.28207   457493.94
  16798.504  0.371654  -1.28274   458911.87
  16803.746  0.369881  -1.28343   459618.72
  16808.990  0.368527   -1.284074   460109.47
  16813.863  0.369157  -1.28468   460516.16
  16819.115  0.371302  -1.28532   459448.78
  16824.369  0.371695  -1.28596   463509.31
  16829.627  0.369531  -1.28654   464041.78
  16834.887  0.366567   -1.287191   464674.16
  16840.152  0.36499  -1.28784   465439.47
  16845.420   0.3653659  -1.28847   466333.72
  16850.691  0.365767   -1.289165   467456.84
  16855.965  0.364273  -1.28979   467783.94
  16861.244  0.361011  -1.29041   468402.94
  16866.525  0.358115  -1.29102   468923.87
  16872.188  0.35619  -1.29172   469789.72
  16877.477  0.355734   -1.292389   470460.47
  16882.768  0.355873  -1.29303   470939.16
  16888.441   0.3549198  -1.29372   471234.78
  16893.740  0.353691  -1.29438   472111.31
  16899.041  0.353475   -1.295017   472978.78
  16904.727  0.353121  -1.29572   473757.19
  16910.416  0.352489  -1.2964    474201.5
  16915.729  0.3513  -1.29707   474678.72
  16921.424  0.349962  -1.29775   475433.87
  16926.744  0.348587  -1.2984   475425.97
  16932.447  0.346878  -1.29909   476529.97
  16938.154  0.345172    -1.29979   477132.87
  16943.865  0.344596  -1.30052   477507.72
  16949.582  0.344209  -1.30119    477701.5
  16955.301  0.344081  -1.30188   477767.19
  16960.643  0.344297  -1.30251   478492.81
  16966.371   0.3434105  -1.30321   479275.37
  16972.100  0.341325   -1.303907   479493.81
  16977.836  0.338339  -1.30463   479525.22
  16983.957  0.335406  -1.30536   479741.53
  16989.699  0.333525  -1.30607   479555.75
  16995.447   0.3321085   -1.306773   480477.91
  17001.197  0.331702  -1.30745      480679