File: data/Sr/SrTiO3_10K_03.xdi
# XDI/1.0 EXAFS Data Collector 1.1 AD.RGN
# Column.1: energy eV
# Column.2: mutrans
# Column.3: murefer
# Column.4: i0
# Beamline.name: SSRL 4-3
# Detector.I0: N2 15cm
# Detector.I1: N2+Ar 30cm
# Detector.I2: Ar
# Element.edge: K
# Element.symbol: Sr
# Mono.d_spacing: 1.920128
# Mono.name: Si(220)
# Mono.notes: (?) unfocussed, detuned 50%, clockwise at E=17000eV
# Sample.formula: SrTiO3
# Sample.name: strontium titanate
# Sample.prep: powder
# Sample.reference: SrCO3
# Sample.temperature: 10K
# Scan.start_time: 1995-06-16 03:59:08
# ///
#    Note: mono d_spacing is nominal!
#-------------
#   energy   mutrans      murefer      i0
  15699.933   1.73502  -1.13779    131545.7
  15710.044   1.73098  -1.13886    130947.7
  15719.844   1.72812  -1.13982    130280.7
  15729.982   1.72408  -1.14093    129642.7
  15740.136   1.71947  -1.14173    129058.7
  15749.973   1.71564  -1.14276    128320.7
  15760.152    1.706769  -1.14411    125869.7
  15770.016   1.70719  -1.14487    127074.7
  15779.891   1.70455  -1.14575    126519.7
  15790.109   1.70097  -1.14684    125842.7
  15800.011   1.69666  -1.14775    125192.7
  15809.925   1.69319  -1.1488    124547.7
  15819.854   1.68888  -1.14985    123946.7
  15830.124   1.68588  -1.15112    123310.7
  15840.076   1.68146  -1.15193    122654.7
  15850.042   1.67781  -1.15301    121987.7
  15860.021   1.67369  -1.15409    121331.7
  15870.012   1.66942  -1.15503    120703.7
  15880.018   1.66564  -1.15608    120125.7
  15890.033   1.66208  -1.1572    119319.7
  15900.063    1.658065  -1.15813    118610.7
  15910.108   1.65376  -1.15916    118038.7
  15920.164   1.6502  -1.1605    117321.7
  15929.896   1.64647  -1.16149    116688.7
  15939.978    1.642646  -1.16268    115994.7
  15950.073   1.63832  -1.16357    115385.7
  15959.844   1.63471  -1.16486    114533.7
  15969.964   1.63118  -1.16592    113961.7
  15980.097   1.62746  -1.16711    113223.7
  15989.906   1.6244  -1.16821    112628.7
  16000.064   1.62032   -1.169418    112023.7
  16009.897   1.61663  -1.17035    111394.7
  16020.082   1.61256  -1.17159    110625.7
  16029.942   1.60839  -1.17285    109850.7
  16040.152   1.60517  -1.17386    109268.7
  16050.036      1.6016  -1.17516    108695.7
  16059.933   1.59754  -1.17628    107948.7
  16069.841   1.5945  -1.17734    107291.7
  16080.104   1.59046  -1.17869    106578.7
  16090.039   1.58708   -1.179692    105852.7
  16099.984   1.58531   -1.181175    105201.7
  16109.943   1.58384  -1.1823    104511.7
  16119.917   1.58684  -1.1836    103852.7
  16121.293   1.58759  -1.18363    103758.7
  16122.670   1.58943  -1.18397    103626.7
  16123.702   1.58997  -1.18395    103618.7
  16125.079   1.59159  -1.18394    103516.7
  16126.112   1.59404  -1.18413    103504.7
  16127.490   1.5984  -1.18445    103309.7
  16128.867   1.60436  -1.18472    103031.7
  16129.901   1.61033  -1.1847    103057.7
  16131.278   1.62309  -1.18479    102992.7
  16132.657   1.64576  -1.18498    102885.7
  16133.690   1.66808  -1.18512    102859.7
  16135.069   1.71053  -1.18522    102672.7
  16136.104   1.76152  -1.18585    102583.7
  16137.483     1.86332  -1.1858    102497.7
  16138.861   1.96909  -1.18649    102470.7
  16139.897   2.03769  -1.187    102411.7
  16141.276    2.149955   -1.187179    102285.7
  16142.657   2.2654  -1.18816    102007.7
  16143.692   2.28598  -1.18819    102053.7
  16145.073   2.21553  -1.18761    101930.7
  16146.108   2.1326  -1.18737    101850.7
  16147.490   2.0202  -1.18719    101736.7
  16148.871   1.94295  -1.18727    101585.7
  16149.907   1.90964  -1.1872    101531.7
  16151.289   1.88732  -1.18732    101468.7
  16152.670   1.88726  -1.18781    101112.7
  16153.707   1.89804  -1.18775    101087.7
  16155.090   1.91999  -1.18787   202132.41
  16155.779   1.92811  -1.18794   202007.36
  16156.473   1.93299  -1.18773   201654.25
  16157.162   1.9346  -1.18785   201812.05
  16157.854   1.93293  -1.18806   201812.78
  16158.547   1.9291   -1.188046   201705.44
  16159.237   1.92568  -1.18831   201832.02
  16160.274   1.92055  -1.18819   201792.52
  16160.968   1.91881  -1.18815   201887.94
  16161.659   1.91746    -1.18842    201865.3
  16162.695   1.91582  -1.1884   201842.56
  16163.389   1.91618   -1.188612   201999.75
  16164.426   1.91864  -1.18861   201905.87
  16165.465   1.92587  -1.18868   201992.91
  16166.157   1.93276  -1.18894   202217.87
  16167.195   1.94657  -1.18909   202080.77
  16168.234   1.96484  -1.18917   201328.58
  16169.271   1.97447  -1.18921   201367.31
  16170.311   1.98163    -1.18955   201457.97
  16171.349   1.99428  -1.18966   202088.55
  16172.388   2.01043  -1.18971   202787.05
  16173.428   2.02662  -1.18986   203645.47
  16174.466   2.03825  -1.18988   204243.83
  16175.506   2.03963  -1.18991   204584.09
  16176.545   2.03145   -1.190185    204965.3
  16177.932   2.00749  -1.19045   205320.41
  16178.971   1.98426  -1.19018   205549.45
  16180.012   1.96271  -1.1903   205953.42
  16181.399   1.94208  -1.19062   206276.31
  16182.440   1.93488  -1.1904   206667.12
  16183.826   1.93566  -1.19067   207058.86
  16185.214   1.94582  -1.19086   207837.52
  16186.254   1.95713  -1.19096   208349.09
  16187.644    1.976305  -1.19126   208803.61
  16189.030   1.99226  -1.19146   209567.03
  16190.419   1.99618  -1.19166   210029.39
  16191.809   1.98649  -1.19163   210481.66
  16193.197   1.9686  -1.19181   211157.86
  16194.587   1.94848  -1.19219   211688.98
  16195.976   1.92917  -1.19212   212490.03
  16197.366   1.91478  -1.19244      212785
  16198.755   1.90613  -1.19228   213766.89
  16200.493   1.90157   -1.192742    214231.7
  16201.884   1.89999  -1.19296   215032.44
  16203.274   1.89741  -1.19292   215796.09
  16205.013   1.89237  -1.19324   216198.69
  16206.405   1.88967  -1.19341   216935.19
  16208.145   1.8899  -1.19358   218005.62
  16209.884   1.89758  -1.19372   218734.97
  16211.276   1.90786  -1.19378   219358.25
  16213.016   1.92547  -1.19397   220243.45
  16214.757   1.94135  -1.1942   221169.58
  16216.499   1.95221  -1.1944   221824.62
  16218.240   1.95893  -1.19475   222538.59
  16219.981   1.96096  -1.19487   223303.48
  16221.725   1.95988  -1.19508    224189.3
  16223.468   1.95846  -1.19525   225207.05
  16225.210   1.95905  -1.1954    225841.7
  16226.954   1.96289  -1.19571    226721.3
  16228.698   1.96509  -1.19591    227596.8
  16230.792   1.95918  -1.19622   228458.23
  16232.535   1.94636  -1.1963   228770.59
  16234.281   1.93057  -1.19655   229119.87
  16236.376   1.91636  -1.19695   229517.08
  16238.122    1.909328  -1.19709    230158.2
  16240.217   1.90449  -1.19736   230802.25
  16242.313   1.9009  -1.19758   231508.22
  16244.061   1.90001  -1.19786   232993.12
  16246.159   1.89694  -1.19796   234745.94
  16248.257   1.89302  -1.19817   236980.67
  16250.354   1.88712  -1.19838   238964.34
  16252.454   1.88115  -1.19858   240999.94
  16254.553   1.87929  -1.19903   242508.44
  16256.653   1.88255  -1.19944   244132.87
  16258.753   1.8869  -1.19973   245214.23
  16260.855   1.88904  -1.19976   246139.52
  16262.957   1.89013  -1.20004   246840.72
  16265.059   1.89348  -1.20032   247633.86
  16267.162   1.90037  -1.20067   248358.91
  16269.616   1.91042  -1.20096   248984.87
  16271.719   1.91851  -1.20115   249993.78
  16274.174   1.92423  -1.2013   251400.59
  16276.280   1.92677  -1.2017   253121.34
  16278.736   1.92797  -1.20193   254923.02
  16280.844   1.92495  -1.20224   256513.59
  16283.301   1.91659  -1.20247   258477.11
  16285.760   1.90545  -1.20292   259693.55
  16288.220   1.89396  -1.20321   261071.91
  16290.328   1.88488  -1.20356   262391.19
  16292.790   1.87587  -1.20386   263534.41
  16295.252   1.8714  -1.20403   264547.53
  16297.715   1.87167  -1.20453   266032.59
  16300.179   1.87292  -1.20494   267462.56
  16302.994   1.87398  -1.20529   268817.47
  16305.459   1.87527  -1.20549   270224.28
  16307.925   1.87857  -1.20585   271604.03
  16310.392   1.88218  -1.20617   273153.69
  16313.211   1.88496  -1.20657   274804.28
  16315.680   1.88293  -1.20671   276149.81
  16318.148   1.87614  -1.20701   277565.25
  16320.972   1.86756  -1.20749   279148.62
  16323.442   1.86265  -1.20774   280479.91
  16326.268   1.86315  -1.20802   281949.09
  16329.092     1.86858  -1.20844   283554.25
  16331.564   1.87258  -1.20862   284964.28
  16334.393   1.87495  -1.20896   286849.28
  16337.221   1.87446  -1.20938   287939.19
  16340.050    1.873627  -1.20973      289144
  16342.881   1.87616  -1.21021   290658.75
  16345.713   1.87843  -1.21058   292317.44
  16348.544   1.87742  -1.21091   293628.03
  16351.378   1.87247  -1.2112   295114.53
  16354.211    1.865042  -1.21165   296856.97
  16357.047   1.85625  -1.21221   298414.34
  16360.238   1.84665  -1.21262   299817.62
  16363.076   1.83968  -1.21284   301487.84
  16365.914   1.8367  -1.21327   302761.97
  16369.107    1.838705  -1.21368   304453.03
  16371.948   1.84253  -1.21415      306143
  16375.146   1.84606  -1.21447   307814.91
  16377.989    1.847221  -1.21487   309383.75
  16381.188   1.84579  -1.2152    310973.5
  16384.389   1.84499  -1.21581   312294.16
  16387.234   1.84595  -1.21609   313617.78
  16390.438   1.84889  -1.21652   315256.28
  16393.641   1.84937  -1.2169   316504.72
  16396.848   1.84726  -1.21746   318468.09
  16400.055   1.84205  -1.2178   319931.37
  16403.262   1.83697    -1.21819   321503.59
  16406.471   1.83272  -1.21867   322909.75
  16409.684   1.82901  -1.21911   324238.81
  16412.895   1.82667  -1.21962   325973.78
  16416.107   1.826  -1.2199   327097.69
  16419.320   1.82719  -1.2204   328768.53
  16422.895   1.82728  -1.22078   329780.28
  16426.111    1.825382  -1.22139   331575.94
  16429.332   1.82023   -1.221897   333427.56
  16432.908    1.813084  -1.22264   335000.06
  16436.129   1.80855  -1.22296   336668.53
  16439.711   1.8073  -1.22345   338183.87
  16443.291   1.80673  -1.22394   339489.19
  16446.518   1.80628  -1.22423   341275.41
  16450.104   1.80833  -1.22475   342493.53
  16453.689   1.81371  -1.22534   343975.59
  16457.277   1.81999  -1.22568   345311.59
  16460.510    1.825078  -1.22594    347007.5
  16464.100   1.82506  -1.22646   348243.31
  16467.695    1.818727  -1.2269   349863.06
  16471.289   1.80811  -1.22735   351510.75
  16474.885    1.798664  -1.22772   353386.34
  16478.842   1.79029  -1.2283   354434.87
  16482.441   1.7866  -1.22885   356651.31
  16486.043   1.78537  -1.22929   358586.69
  16489.646   1.78466   -1.229799      359977
  16493.611   1.78352  -1.23029   361415.22
  16497.217   1.78231  -1.23096   362762.34
  16500.826   1.78213  -1.23118   364252.41
  16504.797   1.78335  -1.2315   365576.41
  16508.406     1.78364  -1.23199   367423.31
  16512.381   1.781  -1.2326   368869.16
  16516.357   1.77851  -1.23313   370261.91
  16519.975   1.77689  -1.23367   371830.59
  16523.953   1.77426  -1.23408   373214.19
  16527.936   1.7729  -1.23463   374971.72
  16531.920   1.77212  -1.23519   376210.16
  16535.906   1.77369  -1.23573   377589.53
  16539.531   1.77381  -1.23622   379027.84
  16543.520   1.77177  -1.23671   380498.06
  16547.875   1.76966  -1.2372   381728.19
  16551.867   1.76748  -1.23774   383073.28
  16555.863   1.76425  -1.23817   384219.25
  16559.861   1.76016  -1.23876   385830.16
  16563.859   1.75855  -1.23929      387629
  16567.863   1.75549  -1.23986   389399.75
  16572.230   1.75223  -1.24028   390819.44
  16576.234   1.74767  -1.24084   391887.06
  16580.607   1.7439  -1.24142   393102.59
  16584.617   1.74216  -1.24216   394297.03
  16588.992   1.74267  -1.24285   395214.41
  16593.008   1.74435  -1.24351   396699.72
  16597.387   1.74519  -1.244   397967.94
  16601.406   1.74484  -1.24439   399457.06
  16605.793   1.74376  -1.2451   400221.16
  16610.182   1.74224  -1.24577   402263.12
  16614.570   1.74029  -1.24629   403357.06
  16618.963   1.73831  -1.24679   404730.87
  16622.992   1.73656  -1.24722   406181.66
  16627.389    1.733686  -1.24778   406899.34
  16631.789   1.72814  -1.2486   407715.94
  16636.191   1.7235  -1.24894   409253.47
  16640.963   1.71973  -1.24966   410068.94
  16645.369   1.71776  -1.24976   411006.31
  16649.779   1.71898  -1.25041   412089.59
  16654.189   1.72112  -1.25091   413326.84
  16658.604   1.72235  -1.2515   414827.97
  16663.389   1.71856  -1.25218   415234.06
  16667.809   1.71337  -1.25277   415950.03
  16672.598   1.70788  -1.25343   416919.97
  16677.021   1.70434  -1.25397   417983.81
  16681.818   1.70162  -1.25464   418672.56
  16686.246   1.69842  -1.25512   419709.25
  16691.047   1.69523  -1.25578   419827.87
  16695.480   1.69411  -1.25643   420849.41
  16700.287   1.69467  -1.25685   421265.84
  16705.096   1.69591  -1.25744   422157.22
  16709.908   1.69445  -1.25806   422266.53
  16714.723   1.69007  -1.25879   422407.75
  16719.170   1.687  -1.25928   424022.91
  16723.990   1.68326  -1.25994   425251.97
  16728.813   1.68058  -1.26054   426051.97
  16733.639   1.67807  -1.26108   426752.91
  16738.840   1.67623  -1.26176   427484.75
  16743.670   1.67472   -1.262401    427614.5
  16748.506   1.67263  -1.26301   427991.19
  16753.342    1.671492  -1.26369   429215.81
  16758.182   1.66908  -1.26419   428996.34
  16763.396   1.66767  -1.26485   429192.81
  16768.244   1.66565  -1.26546   430120.19
  16773.094   1.66187  -1.26605    431105.5
  16778.318   1.65782  -1.26666   431576.72
  16783.174   1.65507  -1.26741   432454.87
  16788.404   1.6525  -1.26804   432838.94
  16793.641    1.649982  -1.26867   432882.94
  16798.504   1.64779  -1.26927   433755.87
  16803.746    1.645106  -1.26992   434365.72
  16808.990   1.64321  -1.27052   435023.47
  16813.863   1.64466  -1.27116   434888.16
  16819.115   1.64042  -1.27184   435501.78
  16824.369   1.64181  -1.27252   436662.31
  16829.627   1.63737  -1.27316   437209.78
  16834.887   1.63416  -1.27377   437908.16
  16840.152   1.63221  -1.27446   438086.47
  16845.420   1.63119  -1.27502   438181.72
  16850.691   1.629  -1.27551   438153.84
  16855.965   1.62588  -1.27625   438747.94
  16861.244   1.6225  -1.27689   439761.94
  16866.525    1.618799  -1.27769   439854.87
  16872.188   1.61561  -1.27842   439445.72
  16877.477    1.614364  -1.27915   439269.47
  16882.768   1.61209  -1.27976   439634.16
  16888.441    1.609712  -1.2804   440569.78
  16893.740   1.60824  -1.28114   440504.31
  16899.041   1.60616  -1.28185   439797.78
  16904.727   1.605  -1.2826   440538.19
  16910.416   1.60192  -1.28316    439942.5
  16915.729    1.598627  -1.28381   439981.72
  16921.424   1.59595   -1.284355   440352.87
  16926.744   1.59371  -1.285   440567.97
  16932.447   1.59163    -1.28569   440848.97
  16938.154   1.58928  -1.28635   440261.87
  16943.865   1.58772  -1.28701   440247.72
  16949.582   1.58612  -1.28782    440287.5
  16955.301   1.58492  -1.28857   439909.19
  16960.643   1.58386  -1.28929   439946.81
  16966.371   1.58089  -1.28997   439589.37
  16972.100   1.57725  -1.29054   439517.81
  16977.836   1.57359  -1.29129   439866.22
  16983.957   1.57018  -1.29208   439497.53
  16989.699   1.56762  -1.29273   439228.75
  16995.447   1.5647  -1.29338   438380.91
  17001.197   1.5639  -1.29396      438516