File: data/Sr/SrTiO3_10K_02.xdi
# XDI/1.0 EXAFS Data Collector 1.1 AD.RGN
# Column.1: energy eV
# Column.2: mutrans
# Column.3: murefer
# Column.4: i0
# Beamline.name: SSRL 4-3
# Detector.I0: N2 15cm
# Detector.I1: N2+Ar 30cm
# Detector.I2: Ar
# Element.edge: K
# Element.symbol: Sr
# Mono.d_spacing: 1.920128
# Mono.name: Si(220)
# Mono.notes: (?) unfocussed, detuned 50%, clockwise at E=17000eV
# Sample.formula: SrTiO3
# Sample.name: strontium titanate
# Sample.prep: powder
# Sample.reference: SrCO3
# Sample.temperature: 10K
# Scan.start_time: 1995-06-16 03:59:08
# ///
#    Note: mono d_spacing is nominal!
#-------------
#   energy   mutrans      murefer      i0
  15699.933    1.912247  -1.11676   68164.703
  15710.044   1.90975  -1.11851   67778.703
  15719.844     1.90731  -1.11968   67404.703
  15729.982   1.90457  -1.12108   67038.703
  15740.136    1.902005  -1.12244   66699.703
  15749.973   1.89987  -1.12398   66276.703
  15760.152   1.89592  -1.12543   65116.699
  15770.016   1.89058  -1.12662   65703.703
  15779.891   1.89104  -1.12813   65501.699
  15790.109    1.887841  -1.12901   65074.699
  15800.011   1.88604  -1.13105   64680.699
  15809.925   1.88369  -1.13216   64410.699
  15819.854   1.8813  -1.13358   64066.699
  15830.124    1.878834   -1.134912   63705.699
  15840.076   1.87617  -1.13647   63359.699
  15850.042   1.87348   -1.138062   63013.699
  15860.021   1.87092  -1.13934   62664.699
  15870.012     1.86849  -1.14099   62272.699
  15880.018   1.86593  -1.14355   61880.699
  15890.033   1.86504  -1.14472   61541.699
  15900.063   1.86274  -1.14578   61277.699
  15910.108   1.86029  -1.1469   60922.699
  15920.164   1.85818  -1.1487   60601.699
  15929.896   1.85588  -1.15015   60206.699
  15939.978   1.8533  -1.15163   59891.699
  15950.073   1.85076  -1.15297   59561.699
  15959.844   1.84835  -1.15485   59132.699
  15969.964   1.84606  -1.1561   58889.699
  15980.097    1.843376   -1.157909   58510.699
  15989.906   1.8413  -1.15931   58143.699
  16000.064   1.8385  -1.16084   57817.699
  16009.897   1.83626  -1.16215   57512.699
  16020.082   1.83334  -1.16367   57169.699
  16029.942   1.83059  -1.16506   56837.699
  16040.152    1.829279  -1.1667   56470.699
  16050.036   1.82704  -1.16796   56157.699
  16059.933   1.82478  -1.16951   55770.699
  16069.841   1.82306  -1.17092   55402.699
  16080.104   1.82079  -1.17239   55054.699
  16090.039   1.81881  -1.17381   54680.699
  16099.984   1.81798  -1.1754   54339.699
  16109.943   1.818  -1.17687   54112.699
  16119.917   1.82175  -1.17811   53660.699
  16121.293   1.82254  -1.178   53653.699
  16122.670   1.82383  -1.17811   53617.699
  16123.702   1.82529   -1.178361   53571.699
  16125.079   1.82741   -1.178325   53635.699
  16126.112    1.829715  -1.17851   53578.699
  16127.490   1.83336   -1.178628   53542.699
  16128.867   1.83909  -1.1791   53422.699
  16129.901   1.84474  -1.17919   53434.699
  16131.278   1.85641  -1.17932   53389.699
  16132.657   1.87666  -1.17961   53325.699
  16133.690   1.89711  -1.17937   53300.699
  16135.069   1.93515  -1.17928   53206.699
  16136.104   1.9774  -1.17947   53133.699
  16137.483   2.07156  -1.17895   53204.699
  16138.861   2.18038  -1.17853   53161.699
  16139.897   2.24891  -1.17875   53018.699
  16141.276     2.35214  -1.17797   53109.699
  16142.657   2.47483  -1.17724   52973.699
  16143.692   2.51979  -1.1767   52949.699
  16145.073   2.47269  -1.17709   52919.699
  16146.108   2.39635  -1.17792   52841.699
  16147.490   2.28136  -1.17823   52818.699
  16148.871   2.19343   -1.179532   52667.699
  16149.907   2.15558  -1.1797   52679.699
  16151.289   2.12783  -1.18017   52673.699
  16152.670   2.12271  -1.18071   52571.699
  16153.707   2.13117    -1.18076   52588.699
  16155.090   2.15288  -1.18102    105127.4
  16155.779   2.16211  -1.18104   104998.36
  16156.473   2.1695  -1.18083   105040.25
  16157.162   2.17314  -1.18091   104965.05
  16157.854   2.17322  -1.18106   104998.79
  16158.547   2.17096  -1.18127   105048.44
  16159.237   2.16694  -1.18121   105104.02
  16160.274   2.16143  -1.1813   105113.52
  16160.968   2.1593  -1.18148   105093.95
  16161.659   2.15791  -1.18152   105169.29
  16162.695   2.15624  -1.18172   105239.56
  16163.389   2.15594  -1.18191   105270.76
  16164.426   2.15732  -1.1819   105427.88
  16165.465   2.16313  -1.18232   105443.91
  16166.157   2.16935  -1.18254   105613.88
  16167.195   2.18207  -1.18244   105486.77
  16168.234   2.19892  -1.18243   105512.58
  16169.271   2.21556  -1.18239   105230.31
  16170.311   2.22067  -1.18232   105381.97
  16171.349    2.229492  -1.18247   105515.55
  16172.388   2.24443  -1.18259   105866.05
  16173.428   2.26183  -1.18249   106320.48
  16174.466   2.2763  -1.1827   106902.83
  16175.506   2.28098  -1.1828    107059.1
  16176.545   2.2771  -1.18308    107186.3
  16177.932   2.25653  -1.18308   107339.41
  16178.971   2.23533  -1.18349   107607.45
  16180.012   2.21296  -1.184   107863.42
  16181.399   2.19  -1.18414   108099.31
  16182.440   2.18093  -1.18427   108481.12
  16183.826   2.17866  -1.18461   108731.86
  16185.214   2.18683  -1.18472   109028.52
  16186.254   2.19782  -1.18474    109298.1
  16187.644   2.21704  -1.18476   109583.61
  16189.030   2.2346  -1.18516   109862.03
  16190.419   2.24223  -1.18525   110166.38
  16191.809   2.23654  -1.18563   110569.66
  16193.197   2.22035  -1.18579   110929.86
  16194.587   2.2  -1.18599   111192.98
  16195.976   2.18068  -1.18629   111657.02
  16197.366   2.16568  -1.18681   111944.99
  16198.755   2.15626  -1.18699   112402.88
  16200.493   2.15063  -1.18721    112635.7
  16201.884   2.14894  -1.18759   113118.44
  16203.274   2.14667  -1.18779    113567.1
  16205.013   2.14268  -1.18776   113970.68
  16206.405   2.14004  -1.18822   114352.19
  16208.145   2.13975  -1.18851   114627.62
  16209.884   2.14564   -1.188561   115091.98
  16211.276   2.15532  -1.18888   115583.25
  16213.016   2.17192  -1.18883   116140.45
  16214.757    2.188406  -1.18886   116536.58
  16216.499   2.20061  -1.18883   116955.62
  16218.240   2.20866  -1.18899   117389.59
  16219.981   2.21279  -1.18926   117956.48
  16221.725   2.21237  -1.1895    118453.3
  16223.468   2.21101  -1.19002   118910.05
  16225.210    2.211242  -1.19   119399.71
  16226.954   2.21459  -1.19028    119915.3
  16228.698   2.21761  -1.19031    120392.8
  16230.792   2.21453  -1.19086   120403.23
  16232.535   2.20365  -1.19122   120588.59
  16234.281   2.18907  -1.19151   120810.87
  16236.376    2.174527  -1.19178   120978.08
  16238.122   2.16818  -1.19204    121299.2
  16240.217   2.1638  -1.19258   121718.25
  16242.313   2.16056  -1.19274   122193.22
  16244.061   2.15872  -1.19295   122965.12
  16246.159   2.15524  -1.19317   124134.94
  16248.257   2.15084  -1.19355   125401.68
  16250.354   2.14473   -1.193743   126532.34
  16252.454   2.13943  -1.19403   127696.93
  16254.553   2.13727  -1.1945   128631.45
  16256.653   2.14003  -1.19488   129214.88
  16258.753    2.144798  -1.19519   129820.23
  16260.855   2.14844  -1.19545   130272.52
  16262.957   2.14997  -1.19561   130683.73
  16265.059   2.15257   -1.195922   131268.86
  16267.162   2.15899  -1.19601   131614.91
  16269.616   2.16883  -1.19628   132122.87
  16271.719   2.17705  -1.19649   132748.78
  16274.174   2.18359  -1.19684   133435.59
  16276.280   2.18558  -1.19689   134272.34
  16278.736   2.18721   -1.197022   135267.02
  16280.844   2.18615  -1.19725   136210.59
  16283.301   2.17953   -1.197664   137265.11
  16285.760   2.16973  -1.19823   138071.55
  16288.220   2.15879  -1.19863   138905.91
  16290.328   2.14966  -1.19912    139761.2
  16292.790   2.14051  -1.19967   140450.41
  16295.252   2.13544  -1.20005   141210.53
  16297.715   2.13549  -1.20045   141933.59
  16300.179   2.13709  -1.20075   142766.56
  16302.994   2.13856  -1.20106   143363.47
  16305.459   2.1401  -1.20137   144243.28
  16307.925   2.14407  -1.20171   145025.03
  16310.392   2.14825  -1.20187    145823.7
  16313.211   2.15115  -1.20229    146791.3
  16315.680   2.15052  -1.20291   147473.81
  16318.148   2.14537  -1.20333   148383.25
  16320.972   2.13706  -1.20369   149121.61
  16323.442   2.13196  -1.20406   150049.91
  16326.268   2.13176  -1.20428   150879.11
  16329.092   2.13689  -1.20458   151646.23
  16331.564   2.14174  -1.20516    152518.3
  16334.393   2.14429  -1.20537   153435.28
  16337.221   2.14421  -1.20525   154292.17
  16340.050   2.14416  -1.20548      155075
  16342.881   2.14584  -1.20573   155921.75
  16345.713   2.14854  -1.20589   156862.42
  16348.544   2.14882   -1.206403   157837.02
  16351.378   2.14538   -1.206832   158649.53
  16354.211   2.1383  -1.20735   159442.98
  16357.047   2.13033  -1.2074   160325.34
  16360.238   2.12113  -1.20774   161111.62
  16363.076   2.11466  -1.20824   162145.84
  16365.914   2.11158  -1.20868   163061.97
  16369.107   2.11305  -1.20932   164129.03
  16371.948   2.11674  -1.20982   164836.02
  16375.146   2.12119  -1.21043   165795.92
  16377.989   2.12255  -1.21056   166647.75
  16381.188    2.121678  -1.21099    167510.5
  16384.389   2.12132  -1.21161   168516.17
  16387.234   2.12333  -1.21243   169471.77
  16390.438   2.12695  -1.21285    170554.3
  16393.641   2.12886  -1.21329   171582.73
  16396.848   2.12748   -1.214194   172308.09
  16400.055   2.12299  -1.21447   173243.39
  16403.262    2.118293  -1.21492   174240.61
  16406.471   2.11456  -1.2154   175209.73
  16409.684   2.11143  -1.21586    175903.8
  16412.895   2.10957  -1.21637   176832.78
  16416.107   2.10959  -1.21691   177860.69
  16419.320   2.11089  -1.21729   178793.52
  16422.895   2.11232  -1.2177   179779.27
  16426.111   2.11089  -1.21827   180693.95
  16429.332   2.10611  -1.21865   181639.55
  16432.908    2.099087  -1.21943   182456.08
  16436.129   2.0948  -1.21988   183567.52
  16439.711   2.09334  -1.22036   184554.89
  16443.291   2.09386  -1.2209   185354.17
  16446.518   2.09345  -1.22141   186378.39
  16450.104   2.09572  -1.22176   187157.53
  16453.689   2.10109    -1.22231   188299.59
  16457.277   2.10809  -1.22268   189141.58
  16460.510   2.11416  -1.2231   190189.48
  16464.100   2.11605  -1.2236   191115.31
  16467.695   2.11137  -1.22414   192076.08
  16471.289   2.10185  -1.22474   192950.75
  16474.885     2.09325  -1.22506   193870.36
  16478.842   2.08571  -1.22569   194684.87
  16482.441   2.08299  -1.22642   195674.33
  16486.043   2.08163  -1.22607    196643.7
  16489.646   2.08099   -1.225915      197390
  16493.611   2.08021  -1.22613    198236.2
  16497.217   2.07913  -1.2263   199228.36
  16500.826   2.0796  -1.22703   200129.42
  16504.797   2.08214  -1.22792   201173.41
  16508.406   2.0841  -1.22846   201925.31
  16512.381   2.08305  -1.22903   202827.14
  16516.357   2.08052  -1.22954   203567.91
  16519.975   2.07905  -1.23017   204567.58
  16523.953   2.07722   -1.230762   205586.19
  16527.936   2.07653  -1.23151   206293.72
  16531.920   2.07629  -1.23191   207004.17
  16535.906   2.07775  -1.23242   208281.55
  16539.531   2.07875  -1.23272   209227.84
  16543.520   2.07713  -1.23315   210359.06
  16547.875   2.07585  -1.23389    210999.2
  16551.867    2.074579  -1.23448   211781.27
  16555.863   2.07046  -1.2348   212448.25
  16559.861   2.06707  -1.23547   213475.17
  16563.859   2.06619  -1.2358      214683
  16567.863   2.06309  -1.23595   215283.77
  16572.230   2.0605  -1.23679   216050.45
  16576.234   2.05699  -1.23718   216989.05
  16580.607   2.05327  -1.23768   217917.58
  16584.617   2.05144  -1.23819   218924.03
  16588.992   2.05235   -1.238924   219779.41
  16593.008   2.05434  -1.23936    220525.7
  16597.387    2.055428  -1.2402   221775.94
  16601.406   2.05562  -1.24069   222602.08
  16605.793   2.05392  -1.24111   222834.14
  16610.182   2.05079  -1.24169   224067.14
  16614.570   2.05079   -1.242608   225055.05
  16618.963   2.04935  -1.24298   225826.89
  16622.992   2.04798  -1.24336   226486.66
  16627.389   2.04642  -1.24415   227170.33
  16631.789   2.0421  -1.2448   227815.94
  16636.191   2.03748  -1.24516   228588.47
  16640.963   2.03447  -1.24599   229430.92
  16645.369    2.033169  -1.24649   230252.31
  16649.779   2.0349  -1.24718   231076.61
  16654.189   2.03774  -1.24741   231776.83
  16658.604   2.0392  -1.24788   232133.98
  16663.389   2.03743  -1.24871   232977.05
  16667.809   2.03335  -1.24938   233720.05
  16672.598   2.02886  -1.25012   234091.97
  16677.021   2.02552  -1.25079    234874.8
  16681.818   2.02342  -1.25119   235532.56
  16686.246    2.021255  -1.25185   236564.25
  16691.047   2.0188  -1.25226   237144.86
  16695.480   2.01837  -1.25289   237937.39
  16700.287   2.01855  -1.2533   238906.86
  16705.096   2.0197  -1.25361   239866.23
  16709.908   2.02066  -1.25491   239876.53
  16714.723   2.01673  -1.25555   239852.77
  16719.170    2.015321  -1.25604   241102.91
  16723.990     2.01181  -1.25648   241877.98
  16728.813   2.00901  -1.25718   242511.98
  16733.639   2.00697  -1.25815   242897.91
  16738.840   2.00575  -1.25928   243259.75
  16743.670     2.00494  -1.25982   244017.52
  16748.506   2.0033  -1.26025    244443.2
  16753.342   2.00258  -1.26063   245194.81
  16758.182   2.00133  -1.26134   245557.34
  16763.396   1.99962  -1.26109    246275.8
  16768.244   1.99745  -1.2611   246871.19
  16773.094   1.99434  -1.26189   247179.48
  16778.318   1.99124  -1.26248   247681.72
  16783.174   1.98913  -1.26285   248306.87
  16788.404   1.98669  -1.26345   248260.95
  16793.641   1.98468  -1.26417   248780.94
  16798.504   1.98386  -1.26522   248714.86
  16803.746   1.98126  -1.26589    249255.7
  16808.990    1.978687  -1.26591   249762.48
  16813.863   1.97974  -1.2667   250009.17
  16819.115   1.97372  -1.26781   248985.78
  16824.369   1.98042  -1.26889   251143.33
  16829.627   1.97751  -1.26991   250971.78
  16834.887   1.97459  -1.27054   251389.17
  16840.152     1.97322  -1.27105   251931.47
  16845.420   1.97246  -1.2718    252287.7
  16850.691   1.97178  -1.27251   252700.86
  16855.965   1.96913  -1.27337   252583.94
  16861.244   1.96543  -1.2738   253007.94
  16866.525   1.96166  -1.27443   253605.86
  16872.188   1.95963  -1.27545    253588.7
  16877.477    1.958748  -1.2756   253548.48
  16882.768   1.95744  -1.27622   253668.17
  16888.441   1.95497  -1.27693   253881.78
  16893.740   1.95343  -1.27781   254314.33
  16899.041   1.95241  -1.2783    254251.8
  16904.727   1.95143  -1.27925   254605.17
  16910.416   1.95005  -1.28017   254580.48
  16915.729   1.94776  -1.28098   254533.72
  16921.424   1.94492  -1.28174   254983.87
  16926.744   1.94394  -1.28238   255364.95
  16932.447   1.942  -1.28314   255444.95
  16938.154   1.93975  -1.28391   255517.87
  16943.865   1.93799  -1.2842   255258.73
  16949.582   1.93642  -1.28515    255336.5
  16955.301   1.93475  -1.28539    255582.2
  16960.643    1.934103   -1.286228   255638.81
  16966.371   1.9321  -1.28702   255547.36
  16972.100   1.92841  -1.28733   255645.83
  16977.836    1.925118  -1.28765   255386.22
  16983.957   1.92304  -1.28863   255279.53
  16989.699   1.92055  -1.2891   255132.77
  16995.447   1.91782  -1.29005   255041.92
  17001.197   1.91832  -1.29106      255037