File: data/Sr/SrTiO3_rt_01.xdi
# XDI/1.0 EXAFS Data Collector 1.1 AD.RGN
# Column.1: energy eV
# Column.2: mutrans
# Column.3: mufluor
# Column.4: murefer
# Column.5: i0
# Beamline.name: SSRL 4-3
# Detector.I0: N2 15cm
# Detector.I1: N2+Ar 30cm
# Detector.If: Ar (Lytle detector, using Rb filter)
# Detector.I2: Ar
# Element.edge: K
# Element.symbol: Sr
# Mono.d_spacing: 1.920128
# Mono.name: Si(220)
# Mono.notes: (?) unfocussed, detuned 50%, clockwise at E=17000eV
# Sample.formula: SrTiO3
# Sample.name: strontium titanate
# Sample.prep: powder
# Sample.reference: SrCO3
# Sample.temperature: room temperature
# Scan.start_time: 1995-06-14 20:43:05
# ///
#    Note: mono d_spacing is nominal!
#-------------
#   energy   mutrans      mufluor     murefer      i0
  15699.933  -1.6204   0.3640663   1.03712   231218.59
  15710.044  -1.6258  0.359444   1.03916   229974.59
  15719.844  -1.62913  0.354932   1.03919   229209.59
  15729.982  -1.63505  0.350201   1.04179   227854.59
  15740.136  -1.63786  0.346402   1.0412   227215.59
  15749.973  -1.64296  0.342853   1.04305   226058.59
  15760.152  -1.66054  0.338979    1.057007   222110.59
  15770.016  -1.65234  0.332997   1.04564   223944.59
  15779.891  -1.65475  0.328138   1.04497   223405.59
  15790.109  -1.65914  0.323951   1.04597   222425.59
  15800.011  -1.66494  0.31957   1.04846   221137.59
  15809.925  -1.66901   0.3152562   1.04923   220239.59
  15819.854  -1.67301  0.311163   1.04995   219357.59
  15830.124  -1.67852   0.3064699    1.052087   218151.59
  15840.076  -1.68381  0.301943   1.05405   216997.59
  15850.042  -1.68849  0.297689   1.05542   215966.59
  15860.021  -1.69265  0.294518   1.05641   214940.59
  15870.012  -1.69559  0.290299   1.05604   213827.59
  15880.018  -1.69781  0.286688   1.05485   213032.59
  15890.033  -1.69997  0.283255   1.05379   211702.59
  15900.063  -1.70216  0.279913   1.0526   210786.59
  15910.108  -1.70423  0.276729    1.051454   209670.59
  15920.164  -1.70638  0.273229   1.05034   208425.59
  15929.896  -1.70848  0.270719   1.04927   207236.59
  15939.978  -1.71071  0.268635   1.04814   206216.59
  15950.073  -1.71294  0.266626    1.047029   205354.59
  15959.844  -1.71487  0.264205    1.045915   203958.59
  15969.964  -1.71709  0.263163   1.04473   202999.59
  15980.097  -1.71922  0.261158   1.0437   202072.59
  15989.906  -1.72113  0.261601   1.04245   200732.59
  16000.064  -1.72339  0.261103   1.04133   199901.59
  16009.897  -1.72528   0.2607173    1.040283   199000.59
  16020.082  -1.7275  0.263263   1.03921   197623.59
  16029.942  -1.7294  0.264514   1.03803   196786.59
  16040.152  -1.73129  0.2686   1.03686   195442.59
  16050.036  -1.73315  0.273279   1.0358   194617.59
  16059.933   -1.734855  0.280234   1.03473   193327.59
  16069.841  -1.73638  0.291462   1.03365   192072.59
  16080.104    -1.73781  0.306477   1.03266   190956.59
  16090.039  -1.73876  0.330428   1.03167   189771.59
  16099.984  -1.7389  0.36977   1.03086   188776.59
  16109.943  -1.7372  0.442655   1.03027   187461.59
  16119.917  -1.73014  0.618676   1.03061   186420.59
  16121.293  -1.72846  0.652371   1.03073   186528.59
  16122.670  -1.72623  0.698558   1.03099   186336.59
  16123.702  -1.72422  0.738202   1.03138   186222.59
  16125.079   -1.720523  0.809588   1.03171   185779.59
  16126.112  -1.7171  0.877321   1.03241   185824.59
  16127.490  -1.71071   1.00071   1.03325   185795.59
  16128.867  -1.70128   1.17661   1.03489   185686.59
  16129.901  -1.69137   1.36191   1.03667   185443.59
  16131.278  -1.67092   1.73439   1.04042   185117.59
  16132.657   -1.640703   2.27114   1.04661   184988.59
  16133.690  -1.6097   2.80753   1.05312   184930.59
  16135.069  -1.54599   3.85859    1.065054   184698.59
  16136.104  -1.4866   4.78214   1.07478   184432.59
  16137.483  -1.38879   6.18719   1.08972   184420.59
  16138.861  -1.27622   7.54232   1.10553   184083.59
  16139.897  -1.1833   7.54057   1.11815   184115.59
  16141.276  -1.05873   7.54886   1.13469   183913.59
  16142.657 -0.973109   7.56578   1.14759   183502.59
  16143.692 -0.944965   7.56076   1.15308   183624.59
  16145.073 -0.955432   7.58079    1.153317   183139.59
  16146.108 -0.996096   7.58244   1.14962   183099.59
  16147.490  -1.0805   7.59875   1.14064   182706.59
  16148.871  -1.16369   7.59748    1.131809   182736.59
  16149.907   -1.211909   7.60235   1.12543   182619.59
  16151.289  -1.25446   7.62373   1.11809   182171.59
  16152.670  -1.26974    7.533608   1.11286   182037.59
  16153.707  -1.26844   7.56654   1.10991   182140.59
  16155.090  -1.259   7.6436   1.10676   363405.19
  16155.779   -1.254004   7.6419   1.1057   363381.16
  16156.473  -1.24896   7.64788   1.10453   363155.06
  16157.162  -1.24456   7.65131   1.10349   363076.91
  16157.854  -1.24136   7.65743   1.10264   362962.69
  16158.547  -1.23955   7.65031    1.102043   363477.41
  16159.237  -1.23925    7.662976   1.10156   363098.06
  16160.274  -1.24117   7.66984   1.10129   363081.66
  16160.968  -1.24297   7.67748   1.10119   363029.19
  16161.659  -1.24477   7.67817    1.101336   363351.66
  16162.695  -1.24597   7.68684   1.10195   363343.06
  16163.389  -1.24502   7.69794   1.10253   363304.37
  16164.426  -1.24098   7.70313   1.10376   363534.66
  16165.465  -1.23431   7.71465   1.10506   363517.87
  16166.157  -1.22893   7.73125   1.10597   363307.03
  16167.195  -1.21823   7.75362   1.10719   362870.09
  16168.234  -1.20586   7.7606   1.10805   363198.12
  16169.271   -1.192106   7.76394   1.109   363740.09
  16170.311  -1.17719   7.77236   1.10996      364087
  16171.349  -1.1627   7.77511   1.11083   364742.81
  16172.388  -1.14938   7.76998   1.11201   365811.59
  16173.428   -1.138252   7.76605   1.11314   366869.28
  16174.466  -1.13094   7.75987   1.11428   368077.94
  16175.506   -1.128433   7.76717   1.11531   368647.53
  16176.545   -1.131969   7.77931   1.11599   369074.03
  16177.932  -1.14549   7.78104    1.116817    370036.5
  16178.971  -1.15922   7.78872   1.11752   370758.87
  16180.012  -1.17454   7.80005   1.11799   371306.22
  16181.399  -1.19292   7.80556   1.1185   372215.47
  16182.440  -1.20179   7.81643   1.1188   372911.69
  16183.826  -1.20591   7.82472   1.1186   373728.81
  16185.214  -1.20061   7.8312   1.11825   374716.91
  16186.254  -1.19229   7.84019   1.11768   375583.91
  16187.644   -1.178529   7.85016     1.11626   376487.87
  16189.030   -1.167032   7.85818   1.11447   377482.75
  16190.419  -1.16195   7.8638   1.11226   378677.59
  16191.809  -1.1652   7.86898   1.11021   379892.34
  16193.197  -1.17615   7.88392   1.10841   380720.03
  16194.587  -1.19193   7.89599   1.10713   381682.69
  16195.976  -1.20874   7.90295   1.10623   382932.25
  16197.366   -1.223719   7.90473   1.1054   384517.75
  16198.755   -1.235252    7.908318   1.10489   386038.22
  16200.493   -1.245102   7.92688    1.104055   386796.59
  16201.884  -1.24997   7.87546   1.10343   388091.91
  16203.274  -1.25361   7.83765   1.1029   389493.16
  16205.013  -1.2569   7.80273   1.10248   391208.34
  16206.405  -1.25793   7.7964   1.10249    392453.5
  16208.145  -1.25608   7.83146   1.1029   393463.56
  16209.884  -1.24922   7.92635   1.10345   395137.56
  16211.276  -1.24043   7.99481   1.10403    396778.5
  16213.016  -1.22651   8.00405   1.10456   398200.37
  16214.757  -1.21249   8.01928   1.10477   399514.19
  16216.499  -1.2009   8.02327   1.10496   401426.94
  16218.240  -1.19284   8.0347   1.10481   403006.66
  16219.981   -1.188342   8.05238   1.10467   404268.28
  16221.725  -1.18602   8.06131   1.10466   406048.84
  16223.468  -1.1845   8.08156    1.104503   407295.34
  16225.210    -1.18241   8.10351   1.10451   408491.78
  16226.954  -1.18016   8.1224   1.10434   409878.16
  16228.698  -1.17968   8.14676   1.10414   410981.47
  16230.792  -1.1839   8.18032   1.10383   411697.72
  16232.535  -1.19178   8.20229   1.10383   413032.87
  16234.281  -1.20205   8.21596    1.103879      414779
  16236.376   -1.214489   8.24135   1.10396   416018.06
  16238.122  -1.22292   8.25831   1.10382   417843.06
  16240.217  -1.23126   8.2081   1.10343      420228
  16242.313  -1.23766   8.13629   1.10277   422810.87
  16244.061  -1.24179   8.09525   1.10216   425007.69
  16246.159  -1.24605    8.059196   1.10126   428356.41
  16248.257  -1.24976   8.02831    1.100471   430718.09
  16250.354  -1.25324    7.996073   1.09947   433666.72
  16252.454  -1.25579   7.97838   1.09882   436657.28
  16254.553  -1.25639    7.986207   1.0988   439206.78
  16256.653  -1.2544   8.0217   1.09865   441619.19
  16258.753  -1.25085   8.07321   1.09783   443742.56
  16260.855  -1.24722   8.12112   1.09735   445205.87
  16262.957  -1.24377   8.16774   1.09705   446678.09
  16265.059  -1.24   8.21627   1.09676   448631.28
  16267.162  -1.23523   8.27899   1.09648   450520.41
  16269.616  -1.22878   8.36365   1.09614   453047.44
  16271.719  -1.22374   8.41238    1.095808   455286.44
  16274.174  -1.21927   8.41547   1.09548   458083.34
  16276.280  -1.21714   8.41688   1.09519   461133.22
  16278.736  -1.2166   8.43243   1.09505      463501
  16280.844  -1.21852   8.43718   1.09492   466520.75
  16283.301  -1.22373   8.44315   1.09494   469649.41
  16285.760  -1.23103   8.39163   1.09499   472876.03
  16288.220  -1.23906    8.305106   1.09499   475086.56
  16290.328  -1.2453   8.23415   1.0948   477706.06
  16292.790  -1.25108   8.17187   1.09454   480607.47
  16295.252  -1.25425    8.143957     1.09413   483022.84
  16297.715  -1.25547    8.139213   1.09369   485743.12
  16300.179  -1.25553   8.15007   1.09345   488030.34
  16302.994   -1.254867   8.16814    1.093266   490963.53
  16305.459  -1.2534   8.19768   1.09327   493440.62
  16307.925  -1.25107   8.23666   1.09309   495836.69
  16310.392  -1.24863   8.2762   1.09292   498251.66
  16313.211  -1.24722   8.30213   1.09246   500684.56
  16315.680  -1.24796   8.30231   1.09205   503628.41
  16318.148  -1.25038   8.27457   1.09164   506286.22
  16320.972  -1.25413   8.24234   1.09115   508556.94
  16323.442  -1.2559   8.22907   1.09075   511843.59
  16326.268  -1.25536   8.25016   1.09019   514441.19
  16329.092  -1.253   8.29114   1.08964   517405.72
  16331.564  -1.25117   8.32357   1.08913   520206.22
  16334.393  -1.25042   8.34013   1.08856   523016.62
  16337.221  -1.25085   8.34762   1.08807   525713.94
  16340.050  -1.25122   8.35336   1.08757   528695.25
  16342.881  -1.25074   8.37072   1.08712    530948.5
  16345.713  -1.25009   8.39041   1.08666   533701.62
  16348.544  -1.25074   8.3885   1.08627   537369.75
  16351.378  -1.25356   8.3616   1.08594   539320.75
  16354.211  -1.25797   8.31627   1.08569   542703.75
  16357.047   -1.263006   8.26607   1.08556   545950.62
  16360.238  -1.26852    8.208952   1.08548    548525.5
  16363.076  -1.27211   8.17528   1.08542   551174.25
  16365.914  -1.2738   8.16394   1.08524      554021
  16369.107  -1.27319   8.19031   1.085   556949.62
  16371.948  -1.27132    8.222057   1.08468   559471.25
  16375.146  -1.26919   8.26441   1.08421   562518.75
  16377.989  -1.2681   8.28535   1.08372   565733.19
  16381.188  -1.26797   8.30038    1.083121   568397.62
  16384.389  -1.2679   8.31417   1.08262   571075.94
  16387.234  -1.26732   8.33409   1.08213   574698.25
  16390.438  -1.26641   8.35819    1.081639   577421.44
  16393.641  -1.26643   8.37136   1.08109   580113.62
  16396.848  -1.26804   8.3614   1.08059   583502.69
  16400.055  -1.27081   8.33707    1.080141   586384.69
  16403.262  -1.27379   8.31471   1.07978   589990.69
  16406.471   -1.276499   8.29405   1.07945   592427.56
  16409.684  -1.2786   8.28183   1.07909   595746.37
  16412.895  -1.27999   8.27668   1.07869   598011.19
  16416.107  -1.28075   8.28156     1.07833   601052.87
  16419.320  -1.28117   8.28823   1.07793    604424.5
  16422.895  -1.28202    8.292299   1.07733   607253.12
  16426.111  -1.28375   8.28157   1.07681   610538.62
  16429.332  -1.28635   8.25987    1.076353   614047.06
  16432.908   -1.289325   8.24066   1.07585    616881.5
  16436.129  -1.29085   8.23389   1.07543   620109.81
  16439.711  -1.2913   8.24465   1.07496   622865.06
  16443.291  -1.29119   8.26232   1.0745   625082.25
  16446.518  -1.29084   8.27903   1.07414   628623.44
  16450.104  -1.28984   8.30734   1.07381    631748.5
  16453.689     -1.2881   8.34539   1.07345    634233.5
  16457.277  -1.28625   8.37976   1.07303   636815.44
  16460.510  -1.28533   8.40503   1.07274   640696.37
  16464.100  -1.28602    8.409787    1.072277   643434.19
  16467.695  -1.28869   8.38932   1.07176   647033.94
  16471.289  -1.29232   8.35837   1.07132   649980.62
  16474.885  -1.29594   8.32942   1.0709   652597.25
  16478.842  -1.29904   8.30391   1.07041   656036.87
  16482.441  -1.30072   8.29794   1.06994   658982.37
  16486.043   -1.301632   8.29956   1.06947   661706.81
  16489.646  -1.30259   8.30566    1.068981   664699.19
  16493.611  -1.30377   8.3058   1.06849    667604.5
  16497.217  -1.30474    8.308009   1.06798   670806.75
  16500.826  -1.30545   8.31654   1.0675   673908.94
  16504.797  -1.30591   8.32628   1.06699   676635.12
  16508.406  -1.30653   8.33112   1.06651   679328.19
  16512.381   -1.307548   8.33655   1.066   682798.19
  16516.357  -1.30876   8.33621   1.06549   686021.12
  16519.975  -1.30982   8.33682   1.06509      688845
  16523.953  -1.31077   8.34031   1.06458   692417.81
  16527.936  -1.3114   8.35276   1.06408   694466.56
  16531.920  -1.31175   8.36308   1.06365   697337.25
  16535.906  -1.31206   8.37365   1.06315   699569.87
  16539.531  -1.31274   8.38024   1.0627   702407.44
  16543.520   -1.313972   8.38524   1.06221   705093.94
  16547.875  -1.31561   8.38015   1.06164   708467.37
  16551.867  -1.31707   8.37923   1.06114   711648.75
  16555.863  -1.31842   8.37496   1.06062   713861.06
  16559.861   -1.319867   8.37506   1.06008   716570.31
  16563.859   -1.321461   8.37142   1.05961    719886.5
  16567.863  -1.32323   8.36717   1.05912   722418.62
  16572.230  -1.32513   8.35962   1.0586   723797.69
  16576.234  -1.32683   8.35594   1.05812   727011.69
  16580.607   -1.328474   8.35395   1.05757   730617.62
  16584.617   -1.329492   8.357   1.05704    732264.5
  16588.992  -1.33028   8.36733   1.05646   734890.31
  16593.008  -1.33088   8.37468   1.05595   738468.06
  16597.387   -1.331713   8.38254   1.0554   740140.75
  16601.406  -1.3326   8.3874   1.05493   742179.37
  16605.793  -1.33363   8.39308    1.054351   744664.94
  16610.182   -1.334637   8.39921   1.05385   747427.37
  16614.570  -1.33585   8.40051   1.05332   750927.81
  16618.963  -1.33703   8.40339   1.05283   752594.19
  16622.992  -1.33815   8.40574   1.05229    755239.5
  16627.389  -1.33966   8.40267   1.05176   756485.75
  16631.789  -1.34135   8.4018   1.05116   759641.94
  16636.191  -1.34299   8.39941   1.05064   762533.06
  16640.963   -1.344668   8.39929   1.05003   765162.06
  16645.369  -1.34581   8.40316   1.04952   766633.06
  16649.779  -1.34672   8.41016   1.04896      769717
  16654.189  -1.34758   8.41605   1.04841   772438.87
  16658.604  -1.34873   8.42273   1.04788   774229.69
  16663.389  -1.35033   8.42034   1.04726   776371.37
  16667.809  -1.35194   8.42047   1.04676   778450.06
  16672.598  -1.35369   8.41528   1.0462   780822.69
  16677.021  -1.35515   8.41839   1.04566   783336.25
  16681.818  -1.35669   8.41672   1.04508   784768.69
  16686.246  -1.3579   8.41863   1.04454   787799.12
  16691.047  -1.35928   8.42214   1.04399    789341.5
  16695.480  -1.36027   8.42941   1.04345   791205.81
  16700.287  -1.36123   8.4376   1.04285      792375
  16705.096  -1.36229   8.44545   1.0422   794633.19
  16709.908  -1.36355   8.44632   1.04169   794748.31
  16714.723  -1.36516   8.4473   1.04102   797417.31
  16719.170  -1.36647    8.449264   1.04051   800312.31
  16723.990  -1.36797   8.45089   1.03991   802558.25
  16728.813  -1.36944   8.45301   1.03933   804462.06
  16733.639  -1.3709   8.45248   1.03873   805778.87
  16738.840  -1.37239   8.45726   1.03813   807878.62
  16743.670  -1.37379   8.46246   1.03753   809328.25
  16748.506  -1.37511   8.46281   1.0369   811047.87
  16753.342   -1.376492   8.46691   1.03633   814108.44
  16758.182  -1.37788   8.46839   1.03574   814918.87
  16763.396   -1.379263   8.47277   1.03511   815922.31
  16768.244  -1.38076   8.47406   1.0345   817584.62
  16773.094  -1.38231   8.47314   1.03392   818576.94
  16778.318   -1.383923   8.47475   1.03325   820256.12
  16783.174  -1.38534   8.48021   1.03269   821548.31
  16788.404  -1.38677   8.48291   1.03203   823285.44
  16793.641    -1.38835   8.48765   1.03141   824227.44
  16798.504  -1.38954   8.48899   1.03083   824837.44
  16803.746  -1.39098   8.4938   1.03011   826477.31
  16808.990  -1.3923   8.49874   1.02962   826753.19
  16813.863  -1.39341   8.50117   1.0291   823841.94
  16819.115  -1.3949   8.51065   1.02823   827319.69
  16824.369  -1.39638   8.50986   1.02775   831587.31
  16829.627  -1.39799   8.51084   1.02712   832269.94
  16834.887  -1.39952     8.51416   1.02646   833105.44
  16840.152  -1.40098   8.51701   1.02582   833933.94
  16845.420  -1.40241   8.52037   1.02517   834423.31
  16850.691  -1.40395   8.52481   1.02452   835622.62
  16855.965  -1.40553   8.52427   1.02389   836710.94
  16861.244  -1.40715   8.52754   1.02325   837256.12
  16866.525  -1.40873   8.52796   1.02267   839019.31
  16872.188   -1.410308   8.53049   1.02195   840281.37
  16877.477  -1.41177   8.53396    1.021346   840220.37
  16882.768  -1.4132    8.537297   1.02073   840519.37
  16888.441  -1.41474   8.53957   1.02005   841123.25
  16893.740  -1.41611   8.54425   1.01939   842158.12
  16899.041  -1.41759   8.54808   1.01873   843491.87
  16904.727  -1.41915   8.5527   1.01812   842617.56
  16910.416  -1.4207   8.55541   1.01751   843559.25
  16915.729  -1.42206   8.55774    1.016888   844069.81
  16921.424  -1.42365   8.56466   1.01625   843964.31
  16926.744  -1.42519   8.56731   1.01568   844249.81
  16932.447  -1.4268   8.57046   1.01497   844147.19
  16938.154  -1.42845   8.57273   1.01432    844589.5
  16943.865  -1.42996   8.57499   1.01365   844945.81
  16949.582  -1.43155   8.57857   1.01298      844005
  16955.301  -1.43306   8.58412   1.01222   845779.12
  16960.643  -1.43451   8.58671   1.01176   845449.19
  16966.371  -1.43612   8.58985   1.01097   844643.25
  16972.100  -1.43774   8.59026   1.01031   844811.19
  16977.836  -1.4393   8.59222   1.00959   844063.06
  16983.957  -1.44099   8.59484   1.00884   843451.87
  16989.699   -1.442568   8.59874   1.00824   842074.69
  16995.447   -1.444217   8.59936   1.00759   841058.37
  17001.197  -1.44574     8.60025   1.00699      841716