File: data/Sr/SrTiO3_rt_03.xdi
# XDI/1.0 EXAFS Data Collector 1.1 AD.RGN
# Column.1: energy eV
# Column.2: mutrans
# Column.3: mufluor
# Column.4: murefer
# Column.5: i0
# Beamline.name: SSRL 4-3
# Detector.I0: N2 15cm
# Detector.I1: N2+Ar 30cm
# Detector.If: Ar (Lytle detector, using Rb filter)
# Detector.I2: Ar
# Element.edge: K
# Element.symbol: Sr
# Mono.d_spacing: 1.920128
# Mono.name: Si(220)
# Mono.notes: (?) unfocussed, detuned 50%, clockwise at E=17000eV
# Sample.formula: SrTiO3
# Sample.name: strontium titanate
# Sample.prep: powder
# Sample.reference: SrCO3
# Sample.temperature: room temperature
# Scan.start_time: 1995-06-14 20:43:05
# ///
#    Note: mono d_spacing is nominal!
#-------------
#   energy   mutrans      mufluor     murefer      i0
  15699.933   -1.625506  0.333048   1.07953   212821.59
  15710.044  -1.62786  0.329695   1.07841   211631.59
  15719.844  -1.63026  0.325688   1.07711   210403.59
  15729.982  -1.63262  0.321619   1.07594   209424.59
  15740.136  -1.63508  0.317867   1.07485   208300.59
  15749.973  -1.63742  0.313994    1.073639   207143.59
  15760.152  -1.64006  0.310682   1.07234   203593.59
  15770.016  -1.64263  0.305861   1.07131   205056.59
  15779.891  -1.64455  0.301851    1.070125   204547.59
  15790.109  -1.64707   0.2971745   1.06893   203213.59
  15800.011  -1.64938  0.293675   1.06776   202005.59
  15809.925  -1.65185   0.2895952      1.0665   201097.59
  15819.854  -1.65418  0.285993   1.0654   199787.59
  15830.124   -1.656601  0.281515   1.0642   198791.59
  15840.076  -1.65906  0.278843   1.06296   197791.59
  15850.042  -1.66134   0.2745279   1.06181   196653.59
  15860.021    -1.66367  0.271184   1.06061   195645.59
  15870.012  -1.66606   0.2675804   1.0595   194520.59
  15880.018  -1.66844  0.264488   1.05826   193486.59
  15890.033  -1.67081  0.262139   1.057   192351.59
  15900.063  -1.6732  0.258224   1.05582   191232.59
  15910.108  -1.67564  0.2564   1.05456   190202.59
  15920.164  -1.67794  0.253359   1.05341   189331.59
  15929.896  -1.68031  0.252056   1.05217   188271.59
  15939.978  -1.68262  0.248884   1.051   187215.59
  15950.073  -1.68506  0.247622   1.04983   185887.59
  15959.844  -1.6872  0.246034   1.04863   184693.59
  15969.964  -1.68956  0.245157   1.04738   183734.59
  15980.097  -1.69195   0.2449849   1.04618   182598.59
  15989.906   -1.694037   0.2441583   1.04506   181582.59
  16000.064  -1.69644  0.24453   1.04377   180500.59
  16009.897  -1.69861  0.245917   1.04262   179348.59
  16020.082  -1.70091  0.246877     1.04149   178217.59
  16029.942  -1.70307  0.249252   1.04023   177057.59
  16040.152  -1.70515  0.254266   1.03906   176102.59
  16050.036  -1.70719  0.259447   1.03793   175064.59
  16059.933  -1.7091  0.266262   1.03676   173948.59
  16069.841  -1.71083  0.276798   1.03568   172840.59
  16080.104  -1.71247  0.293288   1.0345   171656.59
  16090.039   -1.713525  0.316595   1.03348   170719.59
  16099.984  -1.71386    0.354963   1.0326   169552.59
  16109.943  -1.71242  0.427142   1.03204   168428.59
  16119.917  -1.70538  0.599675    1.032365   167505.59
  16121.293  -1.70387  0.63253   1.03255   167419.59
  16122.670   -1.701747  0.678327   1.03278   167131.59
  16123.702  -1.69982  0.717025   1.03308   167190.59
  16125.079  -1.69617  0.789421   1.03356   167033.59
  16126.112   -1.692837  0.853556   1.03404   166771.59
  16127.490  -1.68649  0.972563   1.03512   166626.59
  16128.867  -1.67716   1.14605   1.03662   166530.59
  16129.901  -1.66727   1.32828   1.03835   166372.59
  16131.278  -1.64689   1.69347   1.04207   166053.59
  16132.657  -1.6168   2.21845    1.048456   166209.59
  16133.690  -1.58558   2.74649   1.05507   165946.59
  16135.069  -1.52215   3.77256   1.06706   166034.59
  16136.104  -1.46337   4.669   1.07712   165771.59
  16137.483  -1.36553   6.04279    1.091984   165433.59
  16138.861  -1.25238   7.49411   1.10838   165356.59
  16139.897  -1.15873   8.40772   1.12123   165133.59
  16141.276  -1.0342   8.41836     1.13823   164924.59
  16142.657 -0.94822   8.41938   1.15165   164904.59
  16143.692 -0.919722   8.4337   1.15701   164624.59
  16145.073 -0.930544   8.44483   1.15716   164407.59
  16146.108 -0.972019   8.44791   1.15314   164347.59
  16147.490  -1.05662   8.45537   1.14409   164202.59
  16148.871   -1.141003   8.45501   1.13466   164252.59
  16149.907  -1.18945   7.97966   1.12815   164236.59
  16151.289  -1.2324   7.49728   1.12043   163707.59
  16152.670   -1.247231   7.35975    1.115238   163627.59
  16153.707  -1.24593   7.39721   1.11234   163540.59
  16155.090  -1.23637   7.52757    1.109106   327010.19
  16155.779  -1.23144   7.5861   1.1081   326635.16
  16156.473  -1.22638   7.64428   1.10695   326559.06
  16157.162  -1.22224   7.69121   1.10609   326685.91
  16157.854  -1.21919   7.72624   1.10522   326695.69
  16158.547  -1.21762   7.73852   1.10456   326823.41
  16159.237  -1.21747   7.7435   1.10408   326964.06
  16160.274   -1.219574   7.719   1.10366   326885.66
  16160.968  -1.22152   7.69501   1.10368   327016.19
  16161.659   -1.223423   7.67932   1.10381   327129.66
  16162.695  -1.22479   7.67293    1.104347   327506.06
  16163.389  -1.22413   7.68702   1.10496   327290.37
  16164.426  -1.22034   7.74434   1.10615   327212.66
  16165.465  -1.21379   7.83037   1.10749   327288.87
  16166.157  -1.20853   7.89803   1.10828   326997.03
  16167.195   -1.198023   8.03582   1.10955   326502.09
  16168.234  -1.18578   8.18754   1.11053   326986.12
  16169.271  -1.17216   8.35505   1.11143   327319.09
  16170.311  -1.15725   8.53172   1.11232      327822
  16171.349  -1.14273   8.64056   1.11329   328331.81
  16172.388  -1.12956   8.62234   1.11453   329656.59
  16173.428  -1.11842   8.60917   1.11579   330947.28
  16174.466   -1.110887   8.59544   1.11686   332303.94
  16175.506  -1.10865   8.60822   1.11776   332636.53
  16176.545  -1.11224   8.61957   1.11851   333103.03
  16177.932  -1.12593   8.63038   1.11935    333627.5
  16178.971  -1.13985   8.63184   1.11987   334642.87
  16180.012  -1.1554   8.53377   1.1204   335379.22
  16181.399  -1.17395   8.33369   1.1208   335691.47
  16182.440   -1.183036   8.23824   1.12104   336626.69
  16183.826  -1.18738   8.20615    1.120859   337369.81
  16185.214   -1.182189   8.28649   1.12045   338520.91
  16186.254  -1.174   8.3936   1.11987   339410.91
  16187.644  -1.16022   8.56254   1.11855   340413.87
  16189.030  -1.14878   8.68978   1.11681   340875.75
  16190.419  -1.14358   8.71295   1.11461   341975.59
  16191.809  -1.14682   8.69896   1.1125   342674.34
  16193.197  -1.15775   8.56701   1.11056   343772.03
  16194.587  -1.17375   8.38437   1.10915   344847.69
  16195.976  -1.1908   8.19277   1.10827   346241.25
  16197.366  -1.20603   8.01936     1.10746   346836.75
  16198.755  -1.21772   7.89196   1.10687   348252.22
  16200.493   -1.227782   7.78625   1.10609   349132.59
  16201.884  -1.23277   7.73488   1.10542   350579.91
  16203.274  -1.23657   7.69532   1.10481   351596.16
  16205.013  -1.24008   7.66215   1.10444   352640.34
  16206.405  -1.24136   7.65597   1.10442    353955.5
  16208.145   -1.239556   7.69191    1.104785   355290.56
  16209.884  -1.23268   7.78693   1.10537   356745.56
  16211.276  -1.22409    7.900594   1.10591    357893.5
  16213.016  -1.21028   8.07391   1.10641   359539.37
  16214.757  -1.19636   8.25   1.1067   360947.19
  16216.499  -1.18476   8.38916   1.10681   362257.94
  16218.240  -1.1768   8.48512   1.10665   363632.66
  16219.981  -1.17243    8.542076   1.10656   364872.28
  16221.725  -1.17025   8.57393   1.10643   366489.84
  16223.468  -1.16875   8.59897   1.10633   367893.34
  16225.210  -1.16681     8.63326   1.10622   368719.78
  16226.954  -1.16473   8.67028   1.1062   370198.16
  16228.698  -1.16417   8.68211   1.10592   370750.47
  16230.792   -1.168634   8.63447   1.10567   371842.72
  16232.535  -1.17665   8.53945   1.10558   372838.87
  16234.281  -1.18708   8.41525   1.10562      374112
  16236.376   -1.199626   8.26588   1.10561   375500.06
  16238.122  -1.20818   8.16604   1.10554   377361.06
  16240.217  -1.21657   8.07464   1.10511      379700
  16242.313  -1.22308   8.00462   1.10442   381465.87
  16244.061  -1.22738   7.96433   1.10375   384313.69
  16246.159  -1.23174   7.93086   1.10289   386770.41
  16248.257  -1.23556   7.90345   1.10204   389249.09
  16250.354  -1.23918   7.87556   1.10125   392685.72
  16252.454  -1.24192    7.856049   1.10047   395181.28
  16254.553  -1.24248   7.8618   1.09984   397731.78
  16256.653  -1.24052   7.9002   1.09886   399860.19
  16258.753  -1.23719   7.95003   1.09885   401354.56
  16260.855  -1.23364   7.99799   1.09885   402906.87
  16262.957  -1.23033   8.04499    1.098853   404277.09
  16265.059   -1.226655   8.09529   1.09872   405745.28
  16267.162  -1.222   8.15535   1.09816   407690.41
  16269.616  -1.21555   8.23852   1.09766   410024.44
  16271.719  -1.21064   8.30568   1.09731   412252.44
  16274.174   -1.206261   8.3676   1.09693   414553.34
  16276.280  -1.20411   8.40634   1.09664   417051.22
  16278.736  -1.2037   8.4214   1.09642      419189
  16280.844  -1.20569   8.4064   1.09635   421959.75
  16283.301  -1.21103   8.35604   1.09635   424722.41
  16285.760  -1.21841   8.2752   1.09645   427268.03
  16288.220  -1.22663   8.18796   1.09636   429619.56
  16290.328  -1.23297   8.12086   1.09615   431931.06
  16292.790  -1.23883   8.0657   1.09587   434336.47
  16295.252  -1.24222   8.03616   1.09547   436622.84
  16297.715  -1.24347   8.03069   1.09508   438878.12
  16300.179  -1.2437   8.04419   1.09477   441492.34
  16302.994  -1.24317   8.06062   1.09463   443516.53
  16305.459  -1.24169    8.090854    1.094549   446463.62
  16307.925  -1.2395   8.12916   1.09443   448427.69
  16310.392  -1.23718   8.16779   1.09416   451531.66
  16313.211  -1.23585   8.19392    1.093739   453670.56
  16315.680  -1.23671   8.19542   1.09335   455994.41
  16318.148    -1.23935   8.17441   1.09293   458349.22
  16320.972  -1.24307   8.14046   1.09244   460606.94
  16323.442  -1.24498   8.13009   1.09199   463292.59
  16326.268  -1.24455   8.14931   1.09142   465494.19
  16329.092  -1.24233    8.189075   1.09083   468098.72
  16331.564   -1.240553   8.21981   1.09036   470637.22
  16334.393  -1.23994   8.24092   1.08983   473559.62
  16337.221  -1.24054   8.24641   1.08934   475884.97
  16340.050  -1.241   8.25419   1.08887   478115.25
  16342.881  -1.24059    8.272569   1.08837   481129.47
  16345.713   -1.239998   8.29108   1.0879   483534.62
  16348.544  -1.24074   8.29181   1.08747   486159.72
  16351.378   -1.243645   8.26757   1.08713   488735.75
  16354.211  -1.24823   8.22338   1.0869   491632.72
  16357.047  -1.25332   8.17478   1.08677   494278.62
  16360.238  -1.25892   8.12131    1.086655   496775.47
  16363.076  -1.26262   8.09077   1.08658   499128.25
  16365.914  -1.26436   8.08381   1.08643   501719.97
  16369.107  -1.26387   8.10595    1.086199   504082.62
  16371.948  -1.26206   8.13997   1.08587   507201.22
  16375.146  -1.25999   8.18215   1.08537   509743.75
  16377.989  -1.25904   8.20317   1.08486   512230.22
  16381.188  -1.25896   8.22061   1.08427   515505.62
  16384.389  -1.25903   8.23485   1.08382   518149.97
  16387.234  -1.25847    8.252435   1.08331   521232.22
  16390.438   -1.257637   8.28049   1.08275   523576.44
  16393.641  -1.25776   8.29107    1.082233   526722.62
  16396.848  -1.25945   8.28525    1.081695   529370.69
  16400.055  -1.26227   8.26307   1.08127   531795.69
  16403.262  -1.26547    8.240559   1.08091   535155.69
  16406.471  -1.26822   8.21934   1.08055   537619.56
  16409.684  -1.27039   8.20846   1.08018   540439.37
  16412.895    -1.27188   8.20606   1.07978   543186.19
  16416.107  -1.27272    8.211289   1.07942   546090.87
  16419.320  -1.27319   8.21882   1.07896    548821.5
  16422.895    -1.27418   8.22237   1.07842   551208.12
  16426.111  -1.27602   8.21449   1.0779   554455.62
  16429.332  -1.27872   8.19403   1.07748   557418.06
  16432.908   -1.281762   8.17278   1.07692    559862.5
  16436.129  -1.2834   8.16921   1.07649   562964.81
  16439.711  -1.28394    8.178399   1.07611   565020.06
  16443.291  -1.28392   8.1963   1.07559   567793.25
  16446.518  -1.28362   8.21198   1.07526   570667.44
  16450.104  -1.28268   8.24489   1.07488    573557.5
  16453.689  -1.28103   8.28056   1.07454    576323.5
  16457.277  -1.27933   8.3203   1.07412   578841.44
  16460.510  -1.27852   8.34392   1.07377   581799.37
  16464.100   -1.279374   8.34687   1.07337   584836.19
  16467.695  -1.28211   8.32591   1.07283   587634.94
  16471.289  -1.28583   8.29793   1.07241   589194.62
  16474.885  -1.28955   8.26646   1.07199   592121.25
  16478.842  -1.29275   8.24455   1.07149   594855.87
  16482.441  -1.29448   8.24066   1.07099   597681.37
  16486.043   -1.295566   8.24418   1.0705   600434.81
  16489.646   -1.296542   8.24875   1.07001   603857.19
  16493.611  -1.2978   8.24994   1.06947    605957.5
  16497.217  -1.2989   8.25373    1.068991   608091.75
  16500.826  -1.29967    8.258453   1.06851   611408.94
  16504.797  -1.30028   8.2717   1.06801   613996.12
  16508.406  -1.30103   8.2789   1.06758   616720.19
  16512.381  -1.30212   8.28078   1.06712   618533.19
  16516.357  -1.30338   8.28273   1.06654   621381.12
  16519.975  -1.3045   8.28418   1.06605      623891
  16523.953  -1.30556   8.29069   1.06564   626624.81
  16527.936  -1.30627   8.29965   1.06512   629313.56
  16531.920   -1.306675   8.31195   1.06466   631596.25
  16535.906  -1.30702   8.32562   1.06414   633656.87
  16539.531   -1.307778   8.32954   1.0637   636109.44
  16543.520  -1.30912   8.33305   1.06315   638752.94
  16547.875  -1.31079   8.3317   1.0626   640733.37
  16551.867  -1.31233   8.32969   1.06207   642867.75
  16555.863  -1.31381   8.32916   1.06162   645543.06
  16559.861  -1.31528    8.329762   1.0611   648114.31
  16563.859   -1.316961   8.32445   1.06061    650071.5
  16567.863  -1.31883   8.32038   1.06011   652921.62
  16572.230  -1.32083   8.31407   1.05957   655631.69
  16576.234  -1.32262   8.30952   1.0591   657842.69
  16580.607  -1.32428   8.30948   1.05856   659408.62
  16584.617  -1.32538   8.31201   1.05805    661946.5
  16588.992  -1.32626   8.32149    1.057509   664911.31
  16593.008  -1.32692   8.33276   1.057   666790.06
  16597.387  -1.32776   8.33848   1.05642   669374.75
  16601.406  -1.3287   8.34348   1.05593   671305.37
  16605.793   -1.329744   8.35141   1.05533   673414.94
  16610.182  -1.33086   8.35838   1.05483   676321.37
  16614.570  -1.33211   8.36259   1.05425   678463.81
  16618.963  -1.33331   8.36691   1.05373   680414.19
  16622.992  -1.33449   8.36926   1.0532    683748.5
  16627.389  -1.33604    8.369063   1.05267   685202.75
  16631.789  -1.33775   8.36823   1.05207   686449.94
  16636.191  -1.33946   8.36487   1.05155   690104.06
  16640.963  -1.34117   8.36351   1.05093   691430.06
  16645.369  -1.34235   8.368   1.05034   693122.06
  16649.779  -1.34333   8.37659   1.0498      696033
  16654.189  -1.34428   8.38132   1.04925   698148.87
  16658.604  -1.34546   8.38693   1.04869   700198.69
  16663.389  -1.34712   8.3878   1.04809   701810.37
  16667.809  -1.34882   8.38606   1.04757   704114.06
  16672.598  -1.35057   8.38112   1.04701   705969.69
  16677.021  -1.35214   8.38297   1.04647   708463.25
  16681.818  -1.35371   8.38286   1.04586   709438.69
  16686.246  -1.35504   8.3852   1.04531   711929.12
  16691.047   -1.356364   8.3922   1.0447    713341.5
  16695.480   -1.357433   8.39779   1.04416   715221.81
  16700.287  -1.3584    8.404864    1.043572      717494
  16705.096  -1.35951   8.4142   1.04298   718967.19
  16709.908   -1.360839   8.41798    1.042436   718938.31
  16714.723  -1.36252    8.418743   1.04178   722001.31
  16719.170  -1.3639   8.41974   1.04132   724250.31
  16723.990  -1.36545   8.42225   1.04071   724871.25
  16728.813  -1.36699   8.42254   1.04011   726292.06
  16733.639   -1.368515   8.42491   1.0395   727700.87
  16738.840  -1.37004   8.42847   1.03891   728933.62
  16743.670  -1.3714   8.43175   1.03828   729723.25
  16748.506  -1.37282   8.4355   1.03772   731541.87
  16753.342  -1.37418   8.43495   1.03707   733836.44
  16758.182  -1.37558   8.43946   1.03647   735059.87
  16763.396  -1.37711   8.44379   1.03581   735773.31
  16768.244  -1.37864   8.4454   1.03524   737612.62
  16773.094  -1.38024    8.444898   1.03466   739255.94
  16778.318  -1.38187    8.445811   1.034   740013.12
  16783.174  -1.38331    8.448546   1.03339   741899.31
  16788.404  -1.38476   8.45475   1.03272   742040.44
  16793.641  -1.38627   8.45886   1.0321   743272.44
  16798.504  -1.38768   8.46368   1.03151   745573.44
  16803.746  -1.38906   8.46651   1.03085   744826.31
  16808.990  -1.39053   8.4704    1.030236   745800.19
  16813.863  -1.39168   8.47611   1.02988   743835.94
  16819.115  -1.39325   8.48234   1.02895   746885.69
  16824.369  -1.39477   8.48251    1.028418   750451.31
  16829.627  -1.39639   8.48464     1.02778   749810.94
  16834.887  -1.39805   8.48753   1.0272   751273.44
  16840.152  -1.39955   8.49253   1.02654   750949.94
  16845.420  -1.40107   8.49598   1.02594   752617.31
  16850.691  -1.40256   8.50098   1.02524   753963.62
  16855.965  -1.40416   8.50246   1.02462   755070.94
  16861.244  -1.40579   8.50276   1.024   755798.12
  16866.525     -1.4074   8.50622   1.02336   756505.31
  16872.188  -1.40904   8.50516   1.02264   756477.37
  16877.477  -1.41053   8.50927   1.02201   756805.37
  16882.768   -1.411975   8.51434   1.02141   758427.37
  16888.441  -1.41358   8.51773    1.020712   758427.25
  16893.740  -1.41506   8.52073   1.02011   759664.12
  16899.041  -1.41655   8.52482   1.01946   759682.87
  16904.727  -1.41806    8.530105   1.01879   760827.56
  16910.416  -1.41957   8.53329   1.01813   760366.25
  16915.729  -1.42104    8.536707   1.01752   759503.81
  16921.424  -1.42258   8.54137   1.01686   760571.31
  16926.744  -1.4241   8.54469    1.016251   761040.81
  16932.447  -1.42578   8.54603   1.01557   760490.19
  16938.154  -1.42744   8.54868   1.01492    760817.5
  16943.865  -1.42901   8.55174   1.01422   760020.81
  16949.582  -1.43058   8.55646   1.01355      759110
  16955.301  -1.43223   8.55943   1.01288   757731.12
  16960.643  -1.43368   8.55926   1.01226   757944.19
  16966.371   -1.435338   8.56393    1.011757   758912.25
  16972.100  -1.43698   8.56678   1.011   758067.19
  16977.836  -1.43865   8.56829   1.01033   757465.06
  16983.957  -1.44037   8.57253   1.00963   757609.87
  16989.699  -1.44198   8.57278   1.00899   757709.69
  16995.447  -1.44352   8.57622   1.00826   756565.37
  17001.197  -1.44505    8.582064   1.00764      757013