File: data/Sr/SrTiO3_rt_02.xdi
# XDI/1.0 EXAFS Data Collector 1.1 AD.RGN
# Column.1: energy eV
# Column.2: mutrans
# Column.3: mufluor
# Column.4: murefer
# Column.5: i0
# Beamline.name: SSRL 4-3
# Detector.I0: N2 15cm
# Detector.I1: N2+Ar 30cm
# Detector.If: Ar (Lytle detector, using Rb filter)
# Detector.I2: Ar
# Element.edge: K
# Element.symbol: Sr
# Mono.d_spacing: 1.920128
# Mono.name: Si(220)
# Mono.notes: (?) unfocussed, detuned 50%, clockwise at E=17000eV
# Sample.formula: SrTiO3
# Sample.name: strontium titanate
# Sample.prep: powder
# Sample.reference: SrCO3
# Sample.temperature: room temperature
# Scan.start_time: 1995-06-14 20:43:05
# ///
#    Note: mono d_spacing is nominal!
#-------------
#   energy   mutrans      mufluor     murefer      i0
  15699.933  -1.62732  0.340532   1.07802   219065.59
  15710.044  -1.62963    0.336584   1.07686   217811.59
  15719.844   -1.631948  0.332652   1.07578   216691.59
  15729.982  -1.63434  0.328005    1.074566   215453.59
  15740.136  -1.63678  0.323798    1.073418   214565.59
  15749.973  -1.63911  0.320854    1.072279   213305.59
  15760.152  -1.64168  0.317159   1.07107   209443.59
  15770.016  -1.6442  0.311865   1.0701   211164.59
  15779.891  -1.64612  0.30681    1.068867   210403.59
  15790.109  -1.64857  0.30287   1.06773   209221.59
  15800.011  -1.65099  0.299079   1.06649   208088.59
  15809.925   -1.653314  0.294847   1.06543   207198.59
  15819.854  -1.65565  0.291776   1.0642   206198.59
  15830.124  -1.65807  0.286252   1.06299   204850.59
  15840.076  -1.66041  0.282685   1.06191   204018.59
  15850.042  -1.66277  0.279646   1.06065   202795.59
  15860.021  -1.66509  0.276048   1.0596   201830.59
  15870.012  -1.66748  0.272696   1.05838   200578.59
  15880.018  -1.66979  0.269509   1.05726   199506.59
  15890.033  -1.67211  0.266744   1.05603   198335.59
  15900.063  -1.67454  0.264093   1.05482   197441.59
  15910.108  -1.67685  0.260618   1.0537   196417.59
  15920.164  -1.6792  0.257862   1.05253   195231.59
  15929.896  -1.68142  0.255836   1.05142   194147.59
  15939.978   -1.683811   0.2533595   1.05016   193183.59
  15950.073  -1.68624  0.251729    1.048977   192027.59
  15959.844  -1.68836  0.249473   1.04794   190733.59
  15969.964  -1.69077  0.249017   1.0465   189777.59
  15980.097  -1.693    0.248147   1.04553   188613.59
  15989.906  -1.69513  0.247873   1.04432   187583.59
  16000.064  -1.69748  0.247725   1.04314   186605.59
  16009.897  -1.6996  0.248236   1.04199   185617.59
  16020.082  -1.70199  0.2505   1.04085   184494.59
  16029.942  -1.70404  0.252195   1.03964   183333.59
  16040.152  -1.70611  0.256328   1.03844   182176.59
  16050.036  -1.70819  0.261535    1.037338   181275.59
  16059.933  -1.71007   0.2681357   1.03621   180031.59
  16069.841  -1.71178  0.278931   1.03513   178857.59
  16080.104  -1.71345  0.295244   1.03398   177754.59
  16090.039  -1.71454  0.318944   1.033   176842.59
  16099.984  -1.71482  0.356991   1.03213   175673.59
  16109.943  -1.71337  0.429023   1.03151   174533.59
  16119.917  -1.7063  0.600606    1.031858   173429.59
  16121.293  -1.70489   0.6343118    1.032086   173116.59
  16122.670  -1.70273  0.678404   1.03232   173029.59
  16123.702  -1.70081  0.717323     1.03263   172800.59
  16125.079  -1.69729  0.788284   1.03293   172767.59
  16126.112  -1.6939  0.85189    1.033591   172795.59
  16127.490  -1.68775  0.971141   1.03459   172553.59
  16128.867  -1.67852   1.14241   1.03615   172452.59
  16129.901  -1.66879   1.32252   1.03779   172500.59
  16131.278  -1.64872   1.67944   1.04143   172144.59
  16132.657  -1.61908   2.19796   1.04772   172141.59
  16133.690  -1.58831   2.72141   1.05412   172065.59
  16135.069  -1.52601   3.73399   1.06605   171761.59
  16136.104  -1.46797   4.62718   1.07593   171606.59
  16137.483  -1.37162   5.98398   1.09064   171308.59
  16138.861  -1.25928   7.43993   1.10686   171427.59
  16139.897  -1.16582   8.11414   1.11963   171106.59
  16141.276  -1.04019   8.11615   1.1365   171064.59
  16142.657 -0.952277   8.124   1.15019   170899.59
  16143.692 -0.922527   8.12933   1.15572   170787.59
  16145.073 -0.931068   8.13694   1.15632   170627.59
  16146.108 -0.971211    8.137717   1.15254   170611.59
  16147.490  -1.055   8.15476   1.14362   170254.59
  16148.871  -1.13958    8.164396   1.13416   170053.59
  16149.907  -1.18805   8.02894   1.12776   169708.59
  16151.289  -1.23226   7.52819   1.12021   169611.59
  16152.670  -1.24826    7.369626   1.11484   169589.59
  16153.707  -1.2474   7.40053    1.111806   169685.59
  16155.090  -1.23802   7.52786   1.10849   338490.19
  16155.779  -1.23321   7.59114    1.107444   338262.16
  16156.473  -1.22814   7.65127   1.10634   337899.06
  16157.162  -1.22387   7.70344   1.10542   338191.91
  16157.854  -1.22071   7.73773    1.104522   338100.69
  16158.547  -1.21897   7.75588   1.10382   338232.41
  16159.237  -1.2187   7.75955   1.10333   338292.06
  16160.274  -1.22076   7.73602   1.10297   338449.66
  16160.968  -1.22271   7.71519   1.10287   338331.19
  16161.659  -1.2246   7.69929   1.10298   339130.66
  16162.695  -1.22596   7.688    1.103562   339209.06
  16163.389  -1.22536   7.70397   1.10408   339419.37
  16164.426   -1.221628   7.75948   1.10526   339817.66
  16165.465   -1.215122   7.84955   1.10662   339467.87
  16166.157  -1.20991   7.91776   1.10744   339249.03
  16167.195  -1.19949   8.04699    1.108783   338353.09
  16168.234  -1.18722   8.20192   1.10965   339399.12
  16169.271  -1.17365   8.31989   1.11053   339590.09
  16170.311  -1.15896   8.31754   1.1114      340229
  16171.349  -1.1446   8.31759   1.11244   340959.81
  16172.388  -1.13123   8.31723   1.11365   341748.59
  16173.428  -1.11999   8.31222   1.11482   342769.28
  16174.466   -1.112319   8.30403   1.11596   343963.94
  16175.506  -1.10991   8.30905   1.11679   344612.53
  16176.545  -1.11329   8.31353   1.11762   345364.03
  16177.932  -1.12667   8.32346   1.11845    345928.5
  16178.971  -1.14066   8.32476   1.11899   346891.87
  16180.012  -1.15612   8.33242   1.1195   347589.22
  16181.399  -1.17482   8.34512   1.12007   348363.47
  16182.440  -1.18397   8.25859   1.12019   349090.69
  16183.826  -1.18854   8.22445   1.12001   349604.81
  16185.214  -1.18348   8.30182   1.1196   350613.91
  16186.254  -1.17539   8.37851   1.11907   351653.91
  16187.644  -1.1617   8.38713   1.11772   352391.87
  16189.030  -1.15018   8.39215   1.11602   353470.75
  16190.419  -1.14491   8.40738   1.11383   354200.59
  16191.809  -1.14793   8.41166   1.11177   355389.34
  16193.197  -1.15871    8.419469   1.10985   356518.03
  16194.587  -1.17458   8.40673   1.10844   357572.69
  16195.976   -1.191534   8.2185   1.10754   358543.25
  16197.366  -1.20682   8.04227   1.10671   359916.75
  16198.755  -1.21872   7.91562   1.10613   361390.22
  16200.493   -1.228787   7.80215   1.10527   362059.59
  16201.884  -1.23379   7.75122   1.1047   363411.91
  16203.274  -1.23757    7.708747   1.10407   365081.16
  16205.013  -1.24111   7.67743   1.10373   366100.34
  16206.405    -1.24243   7.66875   1.10362    367229.5
  16208.145  -1.24068   7.70583   1.10405   368792.56
  16209.884  -1.23394   7.80169   1.10461   370184.56
  16211.276   -1.225389    7.919361   1.1051    371467.5
  16213.016  -1.21165   8.09395    1.105595   373030.37
  16214.757  -1.19772   8.26545    1.105946   374701.19
  16216.499  -1.18619   8.40844   1.10599   375894.94
  16218.240  -1.17804   8.504   1.10596   377532.66
  16219.981  -1.17354   8.56148   1.10579   378584.28
  16221.725  -1.17132   8.59423   1.10562   379984.84
  16223.468   -1.169811   8.61841   1.10559   381455.34
  16225.210   -1.167879    8.647267   1.10539   382808.78
  16226.954  -1.1658   8.68062    1.105335   383661.16
  16228.698  -1.16524   8.69825   1.1051   384623.47
  16230.792  -1.1694   8.65822   1.1049   385522.72
  16232.535  -1.17738   8.56275   1.10477   387089.87
  16234.281  -1.18772   8.44017   1.10482      387840
  16236.376  -1.20026   8.29021   1.10484   390009.06
  16238.122  -1.20887   8.18864   1.10478   391567.06
  16240.217  -1.21734   8.09338   1.1043      393942
  16242.313  -1.2239   8.02009    1.103575   396003.87
  16244.061   -1.228212   7.9807    1.102969   398823.69
  16246.159  -1.23267   7.94537   1.1021   401783.41
  16248.257  -1.23647   7.91555   1.10132   404922.09
  16250.354  -1.24006    7.887604   1.10045   407585.72
  16252.454  -1.24269    7.869779   1.09948   410477.28
  16254.553  -1.24331   7.87687   1.09884   413055.78
  16256.653  -1.24153   7.91615   1.09884   414776.19
  16258.753  -1.23815   7.96423   1.09883   416663.56
  16260.855  -1.23457   8.01273   1.09829   418575.87
  16262.957  -1.23114   8.05933   1.09762   419927.09
  16265.059  -1.2275   8.10892   1.09741   421934.28
  16267.162   -1.222828   8.17142   1.0971   423604.41
  16269.616  -1.21642   8.25881   1.09677   425813.44
  16271.719  -1.2115   8.32562   1.09638   428120.44
  16274.174  -1.20708   8.39172   1.09598   430995.34
  16276.280  -1.20499   8.42812   1.09574   433293.22
  16278.736   -1.204533   8.44518   1.09556      435955
  16280.844  -1.20647   8.4297   1.0954   438416.75
  16283.301  -1.21185   8.37561   1.09544   441225.41
  16285.760  -1.21921   8.29488   1.09549   444080.03
  16288.220  -1.22737   8.20237   1.09546   446789.56
  16290.328  -1.23369   8.13551   1.09522   449246.06
  16292.790  -1.23959   8.08097   1.09491   451919.47
  16295.252  -1.24293   8.04982   1.09454   454284.84
  16297.715  -1.24417    8.048726   1.09416   456219.12
  16300.179  -1.24435   8.05769   1.09384   458644.34
  16302.994  -1.24382   8.07737   1.09371   461463.53
  16305.459  -1.24237   8.10673    1.093621   463834.62
  16307.925  -1.24017   8.14272   1.0935   466146.69
  16310.392   -1.237849   8.18268    1.093183   468599.66
  16313.211  -1.23645   8.21004   1.09284   471327.56
  16315.680  -1.23723   8.2124   1.09235   473532.41
  16318.148  -1.23992   8.18765   1.0919   476960.22
  16320.972  -1.24365   8.15691   1.09139   479679.94
  16323.442  -1.24558   8.14585   1.09102   482249.59
  16326.268  -1.24511   8.16667   1.09049   484545.19
  16329.092   -1.242879   8.20864   1.08983   487053.72
  16331.564  -1.24103   8.23938   1.08936   490133.22
  16334.393  -1.24038   8.25794    1.088811   492355.62
  16337.221  -1.241   8.26176   1.0883   495061.97
  16340.050   -1.241412   8.26899   1.08787   497926.25
  16342.881  -1.24102   8.28974   1.08735   500474.47
  16345.713  -1.24045   8.30698   1.08688   503108.62
  16348.544  -1.2412   8.30692   1.08644   505723.72
  16351.378  -1.24409   8.28466    1.086095   508416.75
  16354.211   -1.248673   8.24481   1.08591   511441.72
  16357.047  -1.25376   8.19425   1.08575   513641.62
  16360.238  -1.25933    8.140885   1.08567   515993.47
  16363.076  -1.263   8.10739   1.08562   519239.25
  16365.914  -1.26479    8.099375    1.085444   522190.97
  16369.107  -1.26425   8.12465   1.08521   525131.62
  16371.948  -1.26253   8.15789   1.08486   527604.25
  16375.146  -1.26046   8.19912   1.08436   530639.75
  16377.989  -1.25947   8.22272     1.08384   533966.19
  16381.188  -1.2594   8.2384   1.08331   536398.62
  16384.389  -1.2594   8.25067   1.08276   539360.94
  16387.234  -1.25886   8.26862    1.082272   541994.25
  16390.438  -1.258   8.29597   1.08173   544909.44
  16393.641   -1.258201   8.3065   1.0812   547614.62
  16396.848  -1.2599    8.298476   1.08067   550603.69
  16400.055  -1.26269    8.279124   1.08025   553626.69
  16403.262  -1.26581   8.25778   1.07988   556368.69
  16406.471  -1.26855   8.23667   1.07951   558696.56
  16409.684  -1.27081   8.22077   1.0792   561300.37
  16412.895  -1.27233   8.21722   1.07881   564091.19
  16416.107  -1.27312    8.225888   1.07845   566386.87
  16419.320  -1.27363   8.23311   1.07803    570009.5
  16422.895  -1.27454   8.23687   1.0774   572794.12
  16426.111  -1.27633   8.22668   1.07691   575233.62
  16429.332  -1.27903   8.21103   1.07638   578088.06
  16432.908  -1.28209   8.18685   1.07593    581487.5
  16436.129  -1.28374   8.18145   1.07553   584280.81
  16439.711  -1.28438   8.19175   1.07506   587105.06
  16443.291  -1.28433   8.20906   1.07463   589746.25
  16446.518  -1.28409   8.22627   1.07423   592835.44
  16450.104  -1.2831   8.25626    1.073894    595726.5
  16453.689  -1.28149   8.29311   1.07355    598398.5
  16457.277  -1.27973   8.33082   1.07313   600484.44
  16460.510  -1.27886   8.35518   1.07281   603278.37
  16464.100  -1.27969   8.3601   1.07235   606081.19
  16467.695  -1.28241   8.34262   1.07186   609083.94
  16471.289  -1.28617   8.3126   1.07147   612340.62
  16474.885  -1.28989   8.28007   1.07101   615453.25
  16478.842  -1.29309   8.25862   1.0705   617427.87
  16482.441  -1.29479    8.253102   1.06998   620779.37
  16486.043  -1.29582   8.25738   1.06946   623809.81
  16489.646  -1.2968   8.25961   1.069   626776.19
  16493.611  -1.29805   8.26408   1.0685    629420.5
  16497.217  -1.29914   8.26345   1.06804   632291.75
  16500.826  -1.29989   8.27182   1.06758   635356.94
  16504.797  -1.30043   8.28278    1.067059   638099.12
  16508.406  -1.30108   8.29009   1.06658   641296.19
  16512.381  -1.30221   8.29265   1.066   643858.19
  16516.357  -1.3035   8.29687   1.06551   646600.12
  16519.975  -1.30461   8.29693   1.06505      649456
  16523.953  -1.30562   8.30291   1.06455   652395.81
  16527.936  -1.30633   8.31219     1.06409   654956.56
  16531.920  -1.30671   8.32709   1.06362   657472.25
  16535.906  -1.30705   8.33919   1.06309   660019.87
  16539.531   -1.307793   8.34552   1.06261   662713.44
  16543.520  -1.30911   8.34719   1.0621   665314.94
  16547.875  -1.31077   8.34521   1.06163   667633.37
  16551.867  -1.31231   8.34355   1.06107   670328.75
  16555.863  -1.31376   8.34427   1.06053   672889.06
  16559.861  -1.31521   8.34415   1.06   676268.31
  16563.859   -1.316819   8.3398   1.05953    680192.5
  16567.863  -1.31863    8.334692   1.05913   682739.62
  16572.230  -1.32059   8.32896   1.05849   685429.69
  16576.234  -1.32234   8.3256   1.058   687942.69
  16580.607  -1.324   8.32358   1.05748   690253.62
  16584.617  -1.32506   8.32977   1.05698    692734.5
  16588.992  -1.32591   8.33854   1.05638   695002.31
  16593.008  -1.32658   8.34942   1.05592   697432.06
  16597.387  -1.32745   8.35544   1.05534   699984.75
  16601.406  -1.32838   8.3618   1.05487   701960.37
  16605.793  -1.32939   8.36805   1.05431   703620.94
  16610.182  -1.3305   8.37431   1.05378   706407.37
  16614.570  -1.33172   8.3758   1.05332   709140.81
  16618.963   -1.332962   8.381   1.05275   712084.19
  16622.992   -1.334185   8.38253   1.05231    713216.5
  16627.389  -1.3358   8.38014   1.05177   715401.75
  16631.789  -1.33751   8.37834   1.05121   718306.94
  16636.191  -1.33923   8.3781   1.05067   721064.06
  16640.963  -1.34096   8.37741   1.05007   722820.06
  16645.369  -1.34211   8.38045   1.04953   724475.06
  16649.779  -1.34311   8.38665   1.04899      727322
  16654.189  -1.3441   8.39687   1.04846   728956.87
  16658.604    -1.34526   8.4008   1.04789   731177.69
  16663.389  -1.34693   8.3996   1.04729   733260.37
  16667.809  -1.34855   8.39878   1.04677   736089.06
  16672.598  -1.35037   8.39657   1.04618   736878.69
  16677.021    -1.35188   8.39519   1.04566   739788.25
  16681.818  -1.35341   8.39789   1.04505   741775.69
  16686.246   -1.354759   8.39967   1.04449   743758.12
  16691.047  -1.35607   8.40448   1.04392    746408.5
  16695.480  -1.35709   8.4118   1.04337   748128.81
  16700.287  -1.35816   8.41898   1.04279      750345
  16705.096  -1.35924   8.42784   1.04216   751382.19
  16709.908  -1.36055   8.42902   1.04164   751465.31
  16714.723  -1.3622   8.43213   1.04094   752894.31
  16719.170  -1.36358   8.43102   1.04045   757542.31
  16723.990   -1.365109   8.4322   1.03988   758738.25
  16728.813  -1.36667   8.43543   1.0393   760191.06
  16733.639  -1.3682   8.43529   1.03875   761369.87
  16738.840  -1.36973   8.43685   1.0381   762788.62
  16743.670  -1.37118   8.4432   1.03754   764983.25
  16748.506  -1.37258   8.44532   1.03696   765982.87
  16753.342  -1.37401   8.44703   1.03638   768327.44
  16758.182  -1.37542    8.451567   1.03579   768916.87
  16763.396  -1.37695   8.45488   1.03517   770301.31
  16768.244  -1.37847   8.45579   1.03454   771335.62
  16773.094  -1.38005   8.45625   1.03397   772675.94
  16778.318  -1.3817   8.4585   1.03336   773658.12
  16783.174  -1.38316   8.46065   1.03273   775743.31
  16788.404  -1.38461   8.46455    1.032092   776361.44
  16793.641  -1.38612   8.46806   1.03148   778928.44
  16798.504   -1.387524   8.47063   1.03092   779720.44
  16803.746  -1.3889   8.47482   1.03017   779798.31
  16808.990    -1.39035   8.48063   1.02974   780426.19
  16813.863  -1.39149   8.48536   1.02922   777882.94
  16819.115  -1.39304   8.49195   1.02832   780322.69
  16824.369  -1.39457   8.49323   1.02783   785356.31
  16829.627  -1.3962   8.49399   1.0272   785961.94
  16834.887  -1.39778   8.49647   1.02656   786291.44
  16840.152  -1.39931   8.49918   1.02596   787196.94
  16845.420  -1.40071   8.50687    1.025316   789149.31
  16850.691  -1.40225   8.50826   1.02464   788874.62
  16855.965  -1.40385   8.5109   1.02406   790818.94
  16861.244    -1.40549   8.51135   1.02341   791921.12
  16866.525  -1.40708   8.51387   1.02279   792082.31
  16872.188  -1.4088   8.51744   1.02209   791118.37
  16877.477  -1.41028   8.51812   1.02155   792116.37
  16882.768  -1.41179   8.52551    1.020945   792645.37
  16888.441  -1.41339   8.52745   1.02029   793443.25
  16893.740    -1.41489   8.53153   1.01971   792537.12
  16899.041  -1.41644   8.53284   1.01907   793605.87
  16904.727  -1.41794   8.5371   1.01839   793543.56
  16910.416  -1.41949   8.53908    1.017738   794173.25
  16915.729  -1.42095   8.54527   1.01709   793583.81
  16921.424  -1.42243   8.54896   1.01646   794689.31
  16926.744  -1.4239   8.5521   1.01578   795342.81
  16932.447  -1.42559   8.55338   1.01515   795608.19
  16938.154  -1.42722   8.55521   1.0145    796339.5
  16943.865  -1.42884   8.55877   1.01385   795616.81
  16949.582  -1.43043   8.56242   1.0132      793541
  16955.301  -1.43202   8.56588   1.01247   793519.12
  16960.643  -1.4335   8.56983   1.01189   793816.19
  16966.371  -1.43516   8.57196   1.01128   795127.25
  16972.100  -1.43681   8.57338   1.01067   795065.19
  16977.836  -1.43849   8.57787   1.01001   795163.06
  16983.957  -1.44026   8.58186   1.00929   793914.87
  16989.699  -1.44185   8.5845    1.008631   793744.69
  16995.447   -1.443387   8.58667   1.00793   794511.37
  17001.197  -1.44489   8.59237   1.00728      794251