File: data/Sr/SrTiO3_10K_01.xdi
# XDI/1.0 EXAFS Data Collector 1.1 AD.RGN
# Column.1: energy eV
# Column.2: mutrans
# Column.3: murefer
# Column.4: i0
# Beamline.name: SSRL 4-3
# Detector.I0: N2 15cm
# Detector.I1: N2+Ar 30cm
# Detector.I2: Ar
# Element.edge: K
# Element.symbol: Sr
# Mono.d_spacing: 1.920128
# Mono.name: Si(220)
# Mono.notes: (?) unfocussed, detuned 50%, clockwise at E=17000eV
# Sample.formula: SrTiO3
# Sample.name: strontium titanate
# Sample.prep: powder
# Sample.reference: SrCO3
# Sample.temperature: 10K
# Scan.start_time: 1995-06-16 03:59:08
# ///
#    Note: mono d_spacing is nominal!
#-------------
#   energy   mutrans      murefer      i0
  15699.933   1.90302  -1.12276   71555.703
  15710.044   1.90065  -1.12487   71185.703
  15719.844   1.89831  -1.12553   70818.703
  15729.982   1.89554  -1.12676   70449.703
  15740.136     1.89299  -1.12742   70064.703
  15749.973   1.89076  -1.12883   69696.703
  15760.152   1.88773  -1.13032   68296.703
  15770.016   1.8827   -1.131066   68880.703
  15779.891   1.88291  -1.13234   68671.703
  15790.109   1.88042  -1.13328   68297.703
  15800.011    1.877761  -1.13481   67900.703
  15809.925   1.87542  -1.13593   67552.703
  15819.854   1.87275  -1.1379   67229.703
  15830.124   1.87052  -1.13874   66871.703
  15840.076   1.86794  -1.14012   66576.703
  15850.042   1.86512  -1.14118   66182.703
  15860.021   1.86292  -1.14269   65824.703
  15870.012   1.86006  -1.1437   65475.699
  15880.018   1.8574   -1.145418   65128.699
  15890.033   1.85509  -1.14663   64818.699
  15900.063   1.85281    -1.14824   64441.699
  15910.108   1.85058  -1.14939   64113.699
  15920.164   1.84847   -1.150879   63800.699
  15929.896   1.84601   -1.152341   63434.699
  15939.978   1.84353  -1.15366   63094.699
  15950.073    1.841053  -1.15528   62673.699
  15959.844   1.83861  -1.15643   62300.699
  15969.964   1.83654  -1.1581   61983.699
  15980.097   1.83429  -1.15957   61631.699
  15989.906   1.83251  -1.16072   61290.699
  16000.064   1.82951  -1.16228   61013.699
  16009.897   1.82735  -1.16375   60670.699
  16020.082   1.82449  -1.16489   60267.699
  16029.942   1.82171  -1.16622   59902.699
  16040.152   1.82012  -1.1678   59634.699
  16050.036   1.81781  -1.16917   59287.699
  16059.933   1.81616  -1.1706   58925.699
  16069.841   1.81452  -1.17208   58595.699
  16080.104   1.81229  -1.17368   58140.699
  16090.039   1.81016   -1.175138   57845.699
  16099.984   1.80904  -1.17631   57530.699
  16109.943   1.80911  -1.17796   57180.699
  16119.917   1.8128   -1.179443   56803.699
  16121.293   1.81354  -1.17928   56796.699
  16122.670   1.81508  -1.1796   56724.699
  16123.702   1.81628  -1.17965   56755.699
  16125.079   1.81804  -1.17976   56652.699
  16126.112   1.81996  -1.17985   56619.699
  16127.490   1.82384   -1.180121   56523.699
  16128.867   1.82927  -1.18031   56476.699
  16129.901   1.83484  -1.18036   56459.699
  16131.278   1.84653  -1.18042   56432.699
  16132.657    1.866797  -1.18075   56320.699
  16133.690   1.88698  -1.18052   56320.699
  16135.069   1.92529  -1.18067   56325.699
  16136.104   1.96759  -1.18047   56305.699
  16137.483    2.061786  -1.18034   56247.699
  16138.861   2.17041  -1.17999   56200.699
  16139.897   2.23872  -1.17961   56017.699
  16141.276    2.343043  -1.17947   55981.699
  16142.657   2.46648  -1.17911   55949.699
  16143.692   2.51075  -1.17828   55896.699
  16145.073   2.46333   -1.179043   55867.699
  16146.108   2.38598   -1.179914   55752.699
  16147.490   2.27109  -1.18008   55835.699
  16148.871   2.18417  -1.18115   55726.699
  16149.907   2.14535  -1.18116   55749.699
  16151.289   2.11816  -1.18164   55592.699
  16152.670    2.113301  -1.18224   55480.699
  16153.707   2.12193  -1.18227   55527.699
  16155.090   2.1435  -1.18228    110858.4
  16155.779   2.15289  -1.18221   110844.36
  16156.473   2.16037  -1.18234   110817.25
  16157.162   2.16392  -1.18239   110723.05
  16157.854   2.16367  -1.18249   110771.79
  16158.547   2.16107  -1.18254   110663.44
  16159.237   2.15701  -1.18283   110697.02
  16160.274   2.15151  -1.18266   110816.52
  16160.968   2.14934  -1.1831   110889.95
  16161.659   2.14797  -1.18297   110820.29
  16162.695   2.14606  -1.18314   110919.56
  16163.389   2.14572   -1.183319   111004.76
  16164.426   2.14695  -1.18311   111058.87
  16165.465   2.15301  -1.18347   111081.91
  16166.157   2.15908  -1.18359   111170.87
  16167.195   2.17203  -1.18394   111286.77
  16168.234   2.18859  -1.18373   111138.58
  16169.271   2.20498  -1.18392   110861.31
  16170.311   2.21014  -1.18391   111060.97
  16171.349   2.21929  -1.18396   111142.55
  16172.388   2.23405  -1.18399   111402.05
  16173.428   2.25147  -1.18422   111866.48
  16174.466   2.26574  -1.18436   112401.83
  16175.506   2.27056  -1.18436    112564.1
  16176.545   2.2665  -1.1844    112779.3
  16177.932   2.24619  -1.18493   112946.41
  16178.971   2.22492  -1.1852   113201.45
  16180.012   2.20255  -1.18553   113478.42
  16181.399   2.17987   -1.185798   113661.31
  16182.440   2.17098  -1.18592   113912.12
  16183.826   2.16846  -1.18627   114055.86
  16185.214   2.17653  -1.18645   114399.52
  16186.254   2.18712  -1.18631    114737.1
  16187.644   2.20596  -1.18655   114967.61
  16189.030   2.22346  -1.18656   115307.03
  16190.419   2.23132   -1.186742   115573.38
  16191.809   2.22565  -1.18696   116039.66
  16193.197   2.21005  -1.18718   116255.86
  16194.587   2.18988  -1.18775   116746.98
  16195.976   2.17005  -1.18804   117054.02
  16197.366   2.15422  -1.18826   117315.99
  16198.755   2.14459  -1.18856   117716.88
  16200.493    2.138153  -1.18859    118102.7
  16201.884     2.13648  -1.18885   118434.44
  16203.274   2.13453  -1.18916    119019.1
  16205.013   2.13026   -1.189247   119414.68
  16206.405   2.12728  -1.18934   119750.19
  16208.145   2.12663  -1.1895   120161.62
  16209.884   2.13262  -1.18976   120647.98
  16211.276   2.14216  -1.19012   121099.25
  16213.016   2.1587  -1.19016   121751.45
  16214.757   2.17524  -1.19025   121994.58
  16216.499   2.18745  -1.19027   122502.62
  16218.240   2.19517  -1.1908   123145.59
  16219.981   2.19919  -1.19111   123460.48
  16221.725   2.1992  -1.19131    123991.3
  16223.468   2.19753  -1.19152   124457.05
  16225.210   2.19769  -1.19185   125013.71
  16226.954    2.201284  -1.19186    125469.3
  16228.698   2.20431  -1.19214    125981.8
  16230.792   2.2003  -1.19238   126302.23
  16232.535   2.18912  -1.19259   126687.59
  16234.281   2.17424  -1.19302   126982.87
  16236.376   2.15965  -1.19333   127001.08
  16238.122    2.153212  -1.19363    127196.2
  16240.217   2.14866  -1.19406   127649.25
  16242.313   2.14581  -1.19434   128278.22
  16244.061   2.14407  -1.19457   128892.12
  16246.159   2.14053  -1.19494   129890.94
  16248.257    2.136126  -1.19517   131232.67
  16250.354   2.13034  -1.19533   132495.34
  16252.454   2.12442  -1.19554   133602.94
  16254.553   2.12215  -1.19582   134574.44
  16256.653   2.12501   -1.196015   135308.87
  16258.753   2.12943  -1.19601   135729.23
  16260.855   2.13346  -1.19645   136400.52
  16262.957   2.13537  -1.19657   136699.72
  16265.059   2.13851  -1.19715   137217.86
  16267.162   2.14423  -1.19712   137743.91
  16269.616    2.153103  -1.19664   138121.87
  16271.719   2.16124   -1.196988   138705.78
  16274.174    2.167617  -1.19722   139446.59
  16276.280   2.17021  -1.19776   140362.34
  16278.736   2.17215    -1.19798   141250.02
  16280.844    2.170949  -1.19814   142360.59
  16283.301    2.164572  -1.19848   143215.11
  16285.760   2.15506  -1.19893   143895.55
  16288.220   2.1445   -1.199397   144746.91
  16290.328   2.13533  -1.19972    145598.2
  16292.790   2.12614  -1.20004   146343.41
  16295.252   2.1214   -1.200526   147108.53
  16297.715   2.12094  -1.20097   147913.59
  16300.179   2.12233  -1.2014   148749.56
  16302.994   2.12345  -1.20157   149423.47
  16305.459   2.12496   -1.201894   150314.28
  16307.925   2.12838  -1.20218   151033.03
  16310.392   2.13239  -1.20244    151820.7
  16313.211   2.1359  -1.20278    152594.3
  16315.680   2.1351  -1.20311   153546.81
  16318.148   2.12955  -1.20335   154414.25
  16320.972   2.12192  -1.20409   155261.61
  16323.442   2.11655  -1.20465   156124.91
  16326.268   2.11692  -1.20522   156847.11
  16329.092    2.121806  -1.20567   157597.23
  16331.564   2.1264  -1.20585    158699.3
  16334.393    2.129548  -1.20633   159517.28
  16337.221   2.13042  -1.20686   160395.17
  16340.050   2.13134  -1.20714      161096
  16342.881    2.133312  -1.20744   162018.75
  16345.713   2.13587  -1.20781   162971.42
  16348.544   2.13627  -1.20807   163837.02
  16351.378   2.13289  -1.20883   164494.53
  16354.211   2.12737  -1.20925   165345.98
  16357.047   2.11977  -1.20973   166437.34
  16360.238   2.11066   -1.210084   167208.62
  16363.076   2.10332  -1.21054   168183.84
  16365.914   2.09976  -1.21082   169211.97
  16369.107    2.101662  -1.21128   170017.03
  16371.948   2.1056  -1.21177   170951.02
  16375.146   2.10952   -1.212068   171802.92
  16377.989   2.11151  -1.21237   172648.75
  16381.188   2.11075   -1.212638    173573.5
  16384.389   2.11008  -1.21327   174511.17
  16387.234   2.11132  -1.21353   175460.77
  16390.438   2.11437  -1.21381    176324.3
  16393.641    2.116384  -1.21415   177415.73
  16396.848   2.11457  -1.21456   178408.09
  16400.055   2.10987   -1.215079   179513.39
  16403.262   2.10528  -1.21559   180427.61
  16406.471   2.10153  -1.21601   181250.73
  16409.684    2.098203  -1.21629    182249.8
  16412.895   2.09623  -1.21682   183080.78
  16416.107   2.09638  -1.21725   184143.69
  16419.320   2.09782  -1.21766   184979.52
  16422.895   2.09952  -1.21817   185809.27
  16426.111   2.09855  -1.21896   186745.95
  16429.332   2.09398  -1.2193   187753.55
  16432.908   2.08746  -1.21995   188653.08
  16436.129   2.08302  -1.22016   189574.52
  16439.711    2.082149  -1.22085   190602.89
  16443.291   2.08205  -1.2212   191407.17
  16446.518   2.08156  -1.22149   192450.39
  16450.104   2.08365  -1.22191   193306.53
  16453.689   2.08945   -1.222539   194411.59
  16457.277    2.096475  -1.22285   195273.58
  16460.510   2.10219  -1.22287   196429.48
  16464.100   2.10394   -1.223228   197357.31
  16467.695   2.09878  -1.22378   198213.08
  16471.289   2.08965   -1.224533   199087.75
  16474.885   2.08068  -1.22503   200219.36
  16478.842   2.07327  -1.22563   200944.87
  16482.441   2.07024  -1.22604   201898.33
  16486.043   2.07048  -1.22694    202874.7
  16489.646   2.07058  -1.22726      203783
  16493.611   2.07023  -1.2278    204551.2
  16497.217   2.06954  -1.22814   205707.36
  16500.826    2.069233  -1.2282   206450.42
  16504.797   2.07109  -1.22888   207426.41
  16508.406   2.07213  -1.22928   208402.31
  16512.381   2.07048  -1.22973   209395.14
  16516.357   2.06805  -1.23026   210298.91
  16519.975   2.06638  -1.23081   211064.58
  16523.953   2.06422  -1.23119   212165.19
  16527.936   2.06324   -1.231849   212998.72
  16531.920   2.06318  -1.23233   213737.17
  16535.906   2.06468  -1.23277   214429.55
  16539.531   2.06571  -1.23328   215440.84
  16543.520   2.06458  -1.23379   216673.06
  16547.875   2.06339  -1.23436    217164.2
  16551.867   2.06134  -1.2348   217850.27
  16555.863   2.05815  -1.23552   218597.25
  16559.861   2.05494  -1.23599   219401.17
  16563.859   2.05432  -1.23652      220801
  16567.863   2.05191  -1.23697   221644.77
  16572.230   2.04982   -1.238024   222601.45
  16576.234   2.04631  -1.23847   223352.05
  16580.607   2.04077  -1.23793   224069.58
  16584.617   2.0391  -1.23829   224897.03
  16588.992   2.03959  -1.23877   225719.41
  16593.008   2.04103  -1.23904    226417.7
  16597.387   2.04245  -1.23973   227364.94
  16601.406    2.042207   -1.240195   228045.08
  16605.793   2.04087  -1.24077   228812.14
  16610.182   2.03847  -1.24137   229831.14
  16614.570   2.03821  -1.24184   230855.05
  16618.963   2.03654  -1.24254   231656.89
  16622.992   2.03479   -1.242588   232285.66
  16627.389   2.03303  -1.24309   233258.33
  16631.789   2.02914  -1.24379   233880.94
  16636.191   2.02468   -1.244558   234747.47
  16640.963   2.0217  -1.24528   235533.92
  16645.369   2.02069  -1.24599   236509.31
  16649.779   2.02225  -1.24657   237079.61
  16654.189   2.02391  -1.24707   238407.83
  16658.604    2.025129  -1.24747   238983.98
  16663.389   2.02308  -1.24799   239784.05
  16667.809   2.01855  -1.24832   240516.05
  16672.598   2.01375  -1.24871   241359.97
  16677.021   2.01058  -1.2493    241777.8
  16681.818   2.00815  -1.24999   242296.56
  16686.246   2.0059  -1.25084   243052.25
  16691.047   2.00369  -1.25183   243680.86
  16695.480   2.00332  -1.25234   244259.39
  16700.287   2.00422  -1.25296   244826.86
  16705.096   2.00605  -1.25351   245372.23
  16709.908   2.00581  -1.25404   245795.53
  16714.723   2.00103  -1.25464   246085.77
  16719.170      1.9999  -1.25529   247202.91
  16723.990   1.99637  -1.25601   248148.98
  16728.813   1.99421  -1.25658   248460.98
  16733.639   1.99211  -1.25732   249132.91
  16738.840   1.99046  -1.25774   249675.75
  16743.670   1.9901  -1.25882   250482.52
  16748.506   1.98909   -1.259468    250854.2
  16753.342   1.98831  -1.25996   251471.81
  16758.182    1.987059  -1.26086   252107.34
  16763.396   1.9865  -1.26146    252200.8
  16768.244   1.98508  -1.26199   252848.19
  16773.094   1.98142  -1.2624   253341.48
  16778.318    1.978663  -1.26318   253720.72
  16783.174   1.97666  -1.26368   254252.87
  16788.404   1.9745  -1.26415   254494.95
  16793.641   1.97228  -1.26479   254713.94
  16798.504    1.969572  -1.26525   255255.86
  16803.746   1.96709  -1.2659    255506.7
  16808.990   1.96526  -1.26653   255780.48
  16813.863   1.96613  -1.26718   256035.17
  16819.115   1.95917  -1.26776   255002.78
  16824.369    1.964493  -1.2681   257065.33
  16829.627   1.96218  -1.26865   257135.78
  16834.887   1.95863  -1.26946   257526.17
  16840.152   1.95696  -1.27003   258024.47
  16845.420   1.95725   -1.270861    258383.7
  16850.691   1.95692  -1.27153   258632.86
  16855.965   1.95445  -1.2723   258886.94
  16861.244   1.95091  -1.27291   259061.94
  16866.525   1.94781  -1.27373   259347.86
  16872.188   1.94552  -1.27479    259571.7
  16877.477   1.9445  -1.27556   259327.48
  16882.768   1.94352  -1.2763   259554.17
  16888.441   1.94074  -1.27645   259703.78
  16893.740   1.93912  -1.27728   260039.33
  16899.041   1.93831  -1.27742    260674.8
  16904.727   1.93733  -1.27842   260833.17
  16910.416   1.93611  -1.27907   260864.48
  16915.729   1.93361  -1.27942   260996.72
  16921.424   1.93099  -1.27996   261171.87
  16926.744   1.92836  -1.28025   261719.95
  16932.447   1.92636  -1.28114   262098.95
  16938.154   1.92413  -1.28206   261954.87
  16943.865   1.9223  -1.28261   261758.73
  16949.582   1.92113  -1.28357    262005.5
  16955.301   1.9202  -1.2843    261961.2
  16960.643   1.91913  -1.28497   261714.81
  16966.371   1.91692  -1.28565   262000.36
  16972.100   1.914  -1.28616   262279.81
  16977.836   1.91061  -1.28657   262512.22
  16983.957   1.90692  -1.28753   262385.53
  16989.699   1.90459  -1.28792   262463.75
  16995.447   1.9023  -1.28847   262303.91
  17001.197   1.90213  -1.28909      261969