File: data/Sr/SrZrSi2O7_rt_01.xdi
# XDI/1.0 EXAFS Data Collector 1.1 AD.RGN
# Column.1: energy eV
# Column.2: mutrans
# Column.3: i0
# Beamline.name: SSRL 4-3 (?)
# Detector.I0: N2 15cm
# Detector.I1: N2+Ar 30cm
# Element.edge: K
# Element.symbol: Sr
# Mono.d_spacing: 1.920128
# Mono.name: Si(220)
# Mono.notes: (?) unfocussed, detuned 50%, clockwise at E=16300eV
# Sample.formula: SrZrSi2O7
# Sample.name: SrZrSi2O7
# Sample.prep: powder
# Sample.reference: none
# Sample.temperature: room temperature
# Scan.start_time: 1997-03-18 18:39:16
# ///
#    Note: mono d_spacing is nominal!
#-------------
#   energy   mutrans      i0
  15700.043  0.468542   69642.602
  15709.991  0.469061   69440.602
  15719.954  0.469743   69345.602
  15729.931  0.46834   68890.602
  15739.919  0.477158   68074.602
  15749.921  0.465513   68756.602
  15759.935  0.464916   68247.602
  15769.963  0.466044   68222.602
  15780.002  0.466228   68005.602
  15790.057  0.464076   67660.602
  15799.958  0.463131   67264.602
  15810.037  0.46402   67098.602
  15819.965  0.46409   66880.602
  15830.071  0.467873   67092.602
  15840.023  0.461872   66316.602
  15849.989  0.4601   65839.602
  15859.968  0.464309   66026.602
  15869.959  0.462582   65604.602
  15879.964  0.462718   65381.602
  15889.980   0.4592325   64886.602
  15900.011  0.460351   64648.602
  15910.055  0.460959   64505.602
  15919.941  0.460191   64137.602
  15930.011  0.4579   63652.602
  15939.925  0.453769   63007.602
  15950.020  0.455139   62920.602
  15959.959  0.45754   62918.602
  15970.079  0.458945   62595.602
  15980.045  0.456295   62150.602
  15990.021  0.455262   61862.602
  16000.012  0.453961   61443.602
  16010.014  0.45472   61184.602
  16020.030  0.454503   60895.602
  16030.059  0.454691   60481.602
  16039.929  0.452495   59905.602
  16049.982  0.45542   59732.602
  16060.049  0.457621   59478.602
  16069.959  0.462088   59022.602
  16080.051  0.471338   58449.602
  16081.248  0.474613   58562.602
  16082.448  0.476177   58549.602
  16083.646  0.480055   58644.602
  16084.846   0.4821712   58535.602
  16086.215  0.487244   58499.602
  16087.415  0.490845   58331.602
  16088.613  0.496271   58333.602
  16089.813  0.504835   58452.602
  16091.013  0.512331   58351.602
  16092.214  0.522967   58204.602
  16093.586  0.540582   58124.602
  16094.785  0.561587   58304.602
  16095.986  0.595664   58148.602
  16097.187  0.646251   57984.602
  16098.387  0.724328   57980.602
  16099.588  0.825266   57868.602
  16100.962  0.984588   57793.602
  16102.162   1.15664   57735.602
  16103.364   1.34095   57650.602
  16104.565   1.54864   57652.602
  16105.769   1.73556   57641.602
  16106.970     1.92665   57618.602
  16108.173   2.07719   57624.602
  16109.547   2.19318   57549.602
  16110.750    2.224099   57507.602
  16111.952   2.19408   57448.602
  16113.155   2.12899   57325.602
  16114.359   2.06088   57312.602
  16115.563   1.98451   57238.602
  16116.767   1.91853   57268.602
  16118.143   1.84813   57082.602
  16119.345   1.80095   57013.602
  16120.551   1.76494   56918.602
  16121.754   1.73641   57009.602
  16122.960   1.7145   56895.602
  16124.163   1.69898   56637.602
  16125.369   1.69647   56762.602
  16126.746   1.69617   56658.602
  16127.951   1.70213   56640.602
  16129.157   1.70847   56564.602
  16130.362   1.71713   56455.602
  16131.568    1.722602   56367.602
  16132.774   1.7245   56244.602
  16133.980   1.72556   56253.602
  16135.188   1.72559   56120.602
  16136.568   1.73082   56138.602
  16137.773   1.73815   56147.602
  16138.981   1.75436   56371.602
  16140.188   1.7696   56274.602
  16141.396   1.78999   56092.602
  16142.603   1.81056   55980.602
  16143.812   1.83269   55920.602
  16145.020    1.852144   55954.602
  16146.400   1.86956   55977.602
  16147.607   1.87589   55843.602
  16148.817   1.87428   55636.602
  16150.024   1.86935    111270.2
  16151.062   1.85939   111176.19
  16152.271   1.84848   111067.16
  16153.481   1.83555   110912.09
  16154.517   1.82676   110749.01
  16155.727   1.8171   110759.91
  16156.937   1.80783   110546.77
  16158.146   1.80152   110443.62
  16159.528   1.79464   110195.45
  16160.740   1.78769   110040.24
  16162.122   1.78113   109870.02
  16163.334   1.77454   109711.77
  16164.718   1.76944    109754.5
  16166.102   1.76366    109673.2
  16167.486   1.75792   109597.88
  16168.871   1.7535   109532.54
  16170.257   1.74924   109408.18
  16171.642   1.7446   109537.79
  16173.200    1.737981   109510.37
  16174.586   1.73301   109465.94
  16176.146   1.72673   109658.48
  16177.705   1.72088   109873.99
  16179.265   1.71614   110205.48
  16180.825   1.71265   110541.95
  16182.386   1.71031    110787.4
  16183.946   1.71244   111454.82
  16185.680   1.71685   111924.21
  16187.242   1.72293   112499.59
  16188.977   1.73114   112831.94
  16190.539   1.73883   113172.27
  16192.275    1.746014   113418.57
  16194.011   1.75331   113634.85
  16195.748   1.75939    113825.1
  16197.485   1.76328   113974.34
  16199.396   1.76563   114157.55
  16201.134   1.76577   114497.73
  16203.046    1.761682   114655.89
  16204.785   1.75798   114947.03
  16206.698   1.75365   115249.14
  16208.612    1.747996   115313.23
  16210.525   1.74382    115491.3
  16212.439   1.73861   115830.34
  16214.355   1.73483   116238.36
  16216.271    1.730166   116499.36
  16218.360   1.72651   116821.33
  16220.276   1.72276   117078.28
  16222.367    1.719802    117391.2
  16224.459   1.71639   117758.11
  16226.551   1.71319   118074.98
  16228.644   1.70949   118427.84
  16230.738   1.70577   118729.67
  16232.832   1.7028   119182.48
  16234.925   1.69989   119453.26
  16237.194   1.69688   119926.02
  16239.290   1.69511   120288.76
  16241.561   1.69271   120547.47
  16243.832   1.69047   120974.16
  16246.104   1.68844   121487.82
  16248.377   1.68647   121774.46
  16250.650    1.687001   122257.08
  16252.925   1.68909   122644.67
  16255.199   1.69109   123102.24
  16257.649   1.6941   123425.79
  16259.925   1.69695   123860.31
  16262.377   1.70111   124458.81
  16264.830   1.70524   124853.29
  16267.282   1.71077   125257.74
  16269.737   1.71447   125789.17
  16272.192   1.71644   126202.58
  16274.646   1.7155   126833.96
  16277.279   1.71327   127338.32
  16279.736   1.70993   127802.66
  16282.369   1.70531   128300.96
  16284.828   1.70052   128738.25
  16287.463   1.69585   129302.52
  16290.099   1.69117   129787.76
  16292.735   1.68627   130327.97
  16295.373   1.68205   130647.16
  16298.013   1.67873   131330.33
  16300.827   1.67597   131751.48
  16303.468   1.67339   132537.59
  16306.286   1.67164    133026.7
  16309.104   1.67105   133698.77
  16311.748   1.67071   134340.83
  16314.567   1.67086   135047.84
  16317.388   1.67191   135545.86
  16320.211   1.67432   136231.83
  16323.212   1.67574    136921.8
  16326.035   1.67635   137485.72
  16328.861   1.67649   138061.64
  16331.863   1.67593   138603.52
  16334.867   1.67449   139139.37
  16337.696    1.672088   139773.22
  16340.703   1.66904   140248.03
  16343.710   1.66705   140831.83
  16346.719   1.66525   141469.59
  16349.905   1.66258   142087.34
  16352.918   1.66198   142632.06
  16355.929   1.66104   143274.75
  16359.119   1.65883   143954.42
  16362.312   1.65755   144512.08
  16365.326   1.65614    145300.7
  16368.521    1.654467    145995.3
  16371.717   1.65313   146438.87
  16374.914   1.6515   147275.44
  16378.111   1.64961   148106.97
  16381.488   1.64829   148786.47
  16384.689   1.64719   149391.95
  16388.068   1.64615   150025.42
  16391.271   1.64499   150575.86
  16394.656   1.64342   151199.27
  16398.039   1.64156   151692.66
  16401.424   1.64065   152343.03
  16404.813   1.63825   152866.36
  16408.199   1.6358   153594.69
  16411.590   1.63378   154334.98
  16415.160   1.63298   154900.25
  16418.553   1.63204    155474.5
  16422.127    1.630474   156091.72
  16425.521   1.62863   156626.92
  16429.098   1.62808   157399.09
  16432.676   1.62771   157924.25
  16436.254   1.62701   158599.37
  16439.834   1.626   159133.48
  16443.416   1.62491   159742.58
  16447.180   1.62352   160389.62
  16450.766   1.6226   160932.67
  16454.354   1.62105   161498.67
  16458.121   1.61989   161816.66
  16461.891   1.61866   162325.62
  16465.662   1.61718   162695.56
  16469.438   1.61542   163495.48
  16473.211   1.61421   164096.37
  16476.988   1.61264   164450.25
  16480.768   1.61108   165410.09
  16484.549   1.60869   165673.92
  16488.510    1.606577   166559.72
  16492.295   1.60407   167319.48
  16496.260   1.60205   167615.25
  16500.229   1.59989   168455.97
  16504.199   1.59838   168936.67
  16508.172   1.59718   169443.36
  16512.145   1.59613   170249.02
  16516.121   1.59572   170733.64
  16520.100    1.594181   170951.25
  16524.080   1.59272   171770.84
  16528.242   1.59098   172568.41
  16532.227   1.58958   173028.94
  16536.393   1.58795   173590.45
  16540.563   1.58588   173909.95
  16544.734   1.58398   174804.42
  16548.906   1.582   175354.86
  16553.084   1.57994   175818.28
  16557.262   1.57822   176553.69
  16561.441   1.57642   176976.06
  16565.807   1.57523   177542.41
  16569.990   1.57405   178075.73
  16574.357   1.57239   178512.03
  16578.549   1.57129   179204.31
  16582.922   1.56932   180017.56
  16587.297   1.56751    180788.8
  16591.674   1.56569   181396.02
  16596.055   1.56394   181861.19
  16600.438   1.56208   182126.36
  16604.822   1.56004   182661.48
  16609.393   1.55792   183558.61
  16613.783   1.55605   183659.69
  16618.357   1.55391   184383.77
  16622.754      1.5519    184817.8
  16627.332    1.550062   185129.83
  16631.916   1.54841   185672.81
  16636.502   1.54649    186382.8
  16641.090   1.54493   186580.73
  16645.682   1.54337   187032.66
  16650.273   1.54166   187540.56
  16655.053    1.539663   188029.44
  16659.652   1.53856    187826.3
  16664.254   1.53641   188585.12
  16669.043    1.534742   188482.94
  16673.832   1.53284   189595.72
  16678.625   1.53061   190060.47
  16683.420   1.52872    190483.2
  16688.221   1.52691   190947.92
  16693.023   1.52514   191394.61
  16697.828   1.52305   191598.28
  16702.635   1.5211   192274.92
  16707.445   1.51876   192664.53
  16712.445   1.51668   193182.12
  16717.260    1.514768    193437.7
  16722.264   1.51336   193926.25
  16727.271   1.51135   194230.77
  16732.281   1.50918   194616.27
  16737.295   1.50743   194841.75
  16742.313   1.50541    195467.2
  16747.332   1.5038   195801.62
  16752.355   1.50195   196136.03
  16757.381   1.49979   196474.41
  16762.596   1.4973   196990.77
  16767.629   1.49539   196757.11
  16772.852   1.49356   197470.41
  16777.889   1.49228    196829.7
  16783.117   1.4892   197939.97
  16788.348   1.48749    198608.2
  16793.584    1.485291   198723.42
  16798.822   1.48344   198966.61
  16804.063   1.48192   199252.78
  16809.309   1.48015   199222.92
  16814.744   1.47781   199611.05
  16819.996    1.476137   200014.14
  16825.438   1.47389   200125.22
  16830.697   1.47175   200570.27
  16836.146   1.46964    200902.3
  16841.600   1.46817    201328.3
  16847.059   1.46578   201278.28
  16852.330   1.46368   202036.23
  16857.982   1.46154   201950.17
  16863.451   1.45907   201951.08
  16868.922   1.45702   202399.97
  16874.396   1.45535   202753.83
  16880.064   1.45342   202635.66
  16885.547   1.45102   203040.47
  16891.223   1.44905   202786.27
  16896.711   1.44675   203012.03
  16902.396    1.444657   203226.78
  16908.082   1.44239    203589.5
  16913.773   1.44026   203946.19
  16919.469   1.43835   203727.86
  16925.166   1.43618   203793.52
  16930.869   1.43423   203389.14
  16936.576   1.43178   203818.73
  16942.287   1.42965   203525.31
  16948.191    1.427493   203125.87
  16953.910   1.42468   203499.41
  16959.822   1.4228   203620.91
  16965.740   1.42069   203126.39
  16971.471   1.41889   203196.86
  16977.396   1.41679    203085.3
  16983.326   1.41402    202712.7
  16989.260   1.41171   202828.09
  16995.197   1.4095   203141.45
  17001.332   1.4076    203193.8