File: data/Sr/SrZrSi2O7_15K_03.xdi
# XDI/1.0 EXAFS Data Collector 1.1 AD.RGN
# Column.1: energy eV
# Column.2: mutrans
# Column.3: murefer
# Column.4: i0
# Beamline.name: SSRL 4-3 (?)
# Detector.I0: N2 15cm
# Detector.I1: N2+Ar 30cm
# Detector.I2: Ar
# Element.edge: K
# Element.symbol: Sr
# Mono.d_spacing: 1.920128
# Mono.name: Si(220)
# Mono.notes: (?) unfocussed, detuned 50%, clockwise at E=16300eV
# Sample.formula: SrZrSi2O7
# Sample.name: SrZrSi2O7
# Sample.prep: powder
# Sample.reference: SrCO3
# Sample.temperature: 15K
# Scan.start_time: 1997-03-18 11:11:52
# ///
#    Note: mono d_spacing is nominal!
#-------------
#   energy   mutrans      murefer      i0
  15700.043  0.45587   -1.057102   38937.602
  15709.991  0.453678  -1.05882   38411.602
  15719.954  0.451634  -1.0609   37899.602
  15729.931  0.449441  -1.0628   37410.602
  15739.919  0.448616  -1.06403   36748.602
  15749.921  0.444991  -1.06674   36821.602
  15759.935  0.443051  -1.06847   36298.602
  15769.963  0.440863  -1.0706   35998.602
  15780.002   0.4383426  -1.07271   35726.602
  15790.057  0.4368  -1.07442   35236.602
  15799.958  0.4347  -1.07643   34847.602
  15810.037  0.432709  -1.07841   34454.602
  15819.965  0.430629  -1.08037   34124.602
  15830.071   0.4284398  -1.08235   33747.602
  15840.023  0.42663  -1.08421   33352.602
  15849.989  0.424963   -1.086112   32989.602
  15859.968  0.422417  -1.08847     32661.6
  15869.959  0.421002   -1.090239     32205.6
  15879.964  0.419194  -1.09224     31902.6
  15889.980  0.416761  -1.09439     31650.6
  15900.011  0.414966  -1.09609     31251.6
  15910.055  0.41335  -1.09804     30874.6
  15919.941  0.411032  -1.10033     30534.6
  15930.011  0.409649  -1.10204     30177.6
  15939.925    0.407833  -1.10405     29808.6
  15950.020  0.405685   -1.105858     29516.6
  15959.959  0.403876  -1.10793     29244.6
  15970.079   0.4018463  -1.10987     28962.6
  15980.045  0.399797  -1.11176     28673.6
  15990.021  0.398551  -1.11379     28250.6
  16000.012  0.397048  -1.11568     27919.6
  16010.014  0.395665   -1.117792     27567.6
  16020.030  0.393925  -1.11955     27310.6
  16030.059  0.392922  -1.12147     27016.6
  16039.929  0.392563  -1.12337     26759.6
  16049.982  0.392355  -1.12508     26484.6
  16060.049  0.393528  -1.12677     26023.6
  16069.959  0.396544  -1.12855     25779.6
  16080.051  0.405465  -1.12912     25473.6
  16081.248  0.406901  -1.12929     25430.6
  16082.448  0.408703  -1.12927     25363.6
  16083.646  0.410636  -1.12925     25397.6
  16084.846  0.413669  -1.12941     25214.6
  16086.215  0.416894   -1.129149     25300.6
  16087.415  0.421545   -1.129463     25139.6
  16088.613  0.42605   -1.129505     25055.6
  16089.813  0.431669  -1.12941     25093.6
  16091.013  0.438804  -1.12951     25023.6
  16092.214  0.448259  -1.12921     25112.6
  16093.586  0.463571  -1.12894     25110.6
  16094.785  0.482055  -1.12904     25057.6
  16095.986  0.513301  -1.12938     25047.6
  16097.187  0.560083  -1.13007     24916.6
  16098.387  0.63205  -1.13089     24954.6
  16099.588   0.7216325  -1.13205     24918.6
  16100.962  0.86022  -1.13182     24741.6
  16102.162   1.00231  -1.1267     24685.6
  16103.364   1.14842  -1.11364     24788.6
  16104.565   1.30798  -1.08894     24834.6
  16105.769   1.45154  -1.05629     24586.6
  16106.970   1.5945  -1.01638     24685.6
  16108.173   1.71171 -0.982347     24620.6
  16109.547   1.80611 -0.945515     24580.6
  16110.750   1.82994 -0.917604     24481.6
  16111.952   1.80452 -0.906093     24462.6
  16113.155   1.75043  -0.9099575     24475.6
  16114.359   1.69527 -0.918962     24360.6
  16115.563    1.637117 -0.932049     24454.6
  16116.767   1.58641   -0.942323     24447.6
  16118.143   1.5315 -0.955129     24357.6
  16119.345    1.490952 -0.967776     24273.6
  16120.551   1.45786 -0.977628     24368.6
  16121.754   1.43049 -0.986274     24312.6
  16122.960   1.41258 -0.990932     24012.6
  16124.163   1.40056 -0.99385     24147.6
  16125.369   1.39666 -0.994559     24045.6
  16126.746   1.39738 -0.99504     23949.6
  16127.951   1.40314 -0.996036     23892.6
  16129.157   1.41005 -0.996119     23894.6
  16130.362   1.41528 -0.995599     23834.6
  16131.568   1.41703 -0.994951     23818.6
  16132.774   1.4165 -0.993898     23661.6
  16133.980   1.41474 -0.991752     23887.6
  16135.188   1.41624 -0.989183     23828.6
  16136.568   1.41913 -0.986241     23901.6
  16137.773   1.42593 -0.983372     23702.6
  16138.981   1.43786 -0.981295     23738.6
  16140.188   1.45304 -0.978832     23571.6
  16141.396   1.47193 -0.975243     23563.6
  16142.603   1.4918 -0.971672     23649.6
  16143.812   1.5144 -0.969219     23535.6
  16145.020   1.534  -0.9670033     23384.6
  16146.400   1.54938 -0.965089     23365.6
  16147.607   1.55588 -0.964712     23380.6
  16148.817   1.55587 -0.965331     23304.6
  16150.024   1.54899 -0.966387   46572.199
  16151.062   1.54106 -0.967313   46470.184
  16152.271    1.529069 -0.968554   46488.137
  16153.481   1.51801 -0.970627   46291.063
  16154.517   1.50931 -0.972043   46074.953
  16155.727   1.49951 -0.97348   46148.816
  16156.937   1.49041 -0.974492   46111.648
  16158.146   1.48425 -0.976393   45862.449
  16159.528   1.47754 -0.978993   45997.219
  16160.740   1.47219 -0.981035   45858.957
  16162.122   1.46637 -0.983174   45686.664
  16163.334   1.46196 -0.985194   45604.344
  16164.718   1.45651 -0.987309   45555.988
  16166.102   1.4524 -0.988889   45392.605
  16167.486   1.44797 -0.990138   45402.191
  16168.871   1.44351 -0.991486   45341.746
  16170.257   1.43845 -0.992551    45561.27
  16171.642   1.43323 -0.993792   45161.762
  16173.200   1.42573 -0.994541   45258.227
  16174.586    1.419086 -0.99463   45343.656
  16176.146   1.41313 -0.9942   45367.059
  16177.705   1.40725 -0.99367    45346.43
  16179.265   1.4006  -0.9933265    45565.77
  16180.825   1.39729 -0.992149   45921.078
  16182.386    1.396445 -0.990639   46096.355
  16183.946   1.39847 -0.989798   46602.605
  16185.680   1.4042   -0.989186    46442.82
  16187.242   1.4108 -0.988004   46475.008
  16188.977   1.41958 -0.987973   46702.164
  16190.539   1.42815 -0.98838   46761.289
  16192.275    1.436741 -0.988867   46524.383
  16194.011   1.44366 -0.989057   46566.445
  16195.748   1.44861 -0.989157   46983.477
  16197.485   1.45396 -0.989446    46767.48
  16199.396   1.45712 -0.989822   46630.449
  16201.134   1.45675 -0.989773   46791.391
  16203.046   1.45396 -0.990093   46877.301
  16204.785   1.44987 -0.990178    46611.18
  16206.698   1.44518 -0.990262   46620.027
  16208.612   1.44006 -0.9906   46695.848
  16210.525   1.43618 -0.991479   46831.633
  16212.439   1.43191 -0.992763   46788.391
  16214.355   1.42711 -0.994176   47057.117
  16216.271   1.42296 -0.995575   46850.809
  16218.360   1.41855 -0.996775   47227.473
  16220.276   1.41551 -0.99755   47159.109
  16222.367   1.41288 -0.999369   47203.711
  16224.459   1.4095  -1.00092   47376.281
  16226.551   1.40506  -1.0012   47247.824
  16228.644   1.40059  -1.00138   47337.336
  16230.738   1.39602  -1.00226   47613.816
  16232.832   1.39192  -1.00275   47527.266
  16234.925   1.38885  -1.00335   47613.684
  16237.194   1.38598  -1.00357    47748.07
  16239.290   1.38388  -1.00387   47974.426
  16241.561   1.3818  -1.00409   47980.754
  16243.832   1.37877  -1.00392   48295.051
  16246.104   1.37738  -1.00394   48107.313
  16248.377    1.375545  -1.00363   48492.547
  16250.650   1.37697  -1.00431   48258.754
  16252.925   1.37899  -1.00396   48651.926
  16255.199   1.38159  -1.00309   48681.066
  16257.649   1.38627  -1.00384    48799.18
  16259.925   1.38963  -1.00397   49029.258
  16262.377   1.39504  -1.00471   48816.309
  16264.830   1.40015   -1.005089   49270.328
  16267.282   1.40602  -1.00566   49190.316
  16269.737   1.41063   -1.006534   49336.273
  16272.192   1.41266  -1.00595   49400.203
  16274.646   1.41327  -1.0066   49320.098
  16277.279   1.41148  -1.00735   49592.965
  16279.736   1.40761   -1.007959   49695.801
  16282.369   1.40083  -1.00747   49684.605
  16284.828   1.39466  -1.00828   49887.379
  16287.463   1.38783  -1.00912   50148.121
  16290.099   1.38156   -1.009887   50136.832
  16292.735   1.37496  -1.01062   50419.516
  16295.373   1.36921  -1.01167   50424.164
  16298.013   1.36421  -1.01237   50527.785
  16300.827   1.36079  -1.01361   50654.375
  16303.468   1.35862  -1.01415   51083.934
  16306.286   1.35757  -1.01448   50908.461
  16309.104   1.35666  -1.01474   51174.957
  16311.748    1.357749  -1.0156   51252.426
  16314.567   1.35968  -1.01593   51454.859
  16317.388    1.363802  -1.01586   51524.266
  16320.211   1.36684  -1.01623   51670.641
  16323.212   1.37062  -1.01675   52009.984
  16326.035   1.37389  -1.0175   51928.297
  16328.861   1.37431  -1.01797   52362.578
  16331.863   1.37196  -1.0184   52417.832
  16334.867   1.3679  -1.01876   52536.051
  16337.696   1.36403  -1.01912   52412.242
  16340.703   1.36045  -1.01957   52802.402
  16343.710   1.35811  -1.02033   52877.531
  16346.719   1.35649  -1.02081   53067.629
  16349.905   1.35584  -1.02171   53502.695
  16352.918   1.35531  -1.0229   53477.734
  16355.929   1.3539  -1.02339   53533.738
  16359.119   1.35239  -1.02412   53734.715
  16362.312   1.35089  -1.02487    53962.66
  16365.326   1.35024  -1.02449    54115.57
  16368.521   1.34935  -1.02531   54220.457
  16371.717   1.34778  -1.02623   54461.309
  16374.914   1.34451  -1.02677   54620.129
  16378.111   1.34182  -1.02758   54846.922
  16381.488   1.34051  -1.02838    54830.68
  16384.689   1.33929  -1.0282    54693.41
  16388.068   1.33827  -1.0284   54853.109
  16391.271   1.33745  -1.02968   55243.777
  16394.656   1.33616  -1.03047   55330.414
  16398.039   1.33495  -1.0317    55470.02
  16401.424   1.33253  -1.03211   55901.598
  16404.813   1.33071  -1.03296   55638.145
  16408.199   1.3286  -1.03373   55816.656
  16411.590   1.32679  -1.03373   56014.141
  16415.160   1.32347  -1.03417   56208.594
  16418.553   1.32223  -1.03439   56334.016
  16422.127      1.3221  -1.03567    56458.41
  16425.521   1.3202  -1.03589    56751.77
  16429.098   1.31964  -1.03593   56825.102
  16432.676   1.32094  -1.03701   57108.398
  16436.254   1.32156  -1.03737   57180.668
  16439.834   1.32168  -1.03802   57205.906
  16443.416   1.32003  -1.03927   57515.113
  16447.180   1.31711  -1.03991   57593.293
  16450.766   1.3153  -1.04059   57845.438
  16454.354   1.31363  -1.04101   58030.551
  16458.121     1.31235  -1.04178   57921.637
  16461.891   1.31043  -1.04196   58131.691
  16465.662   1.30903  -1.04256   58159.715
  16469.438   1.30827  -1.04355   58764.707
  16473.211   1.30764  -1.0444   58607.668
  16476.988   1.30759  -1.04508   58783.602
  16480.768    1.305889  -1.04564     58803.5
  16484.549   1.30229  -1.04581   59053.371
  16488.510      1.2985  -1.04679   58981.211
  16492.295   1.29513  -1.04769    59094.02
  16496.260   1.29169  -1.04862   59466.797
  16500.229   1.28782  -1.04865   59520.543
  16504.199   1.28498  -1.04902   59580.258
  16508.172   1.2852  -1.04995   59723.945
  16512.145   1.2864  -1.05087   60164.598
  16516.121   1.28666  -1.05112   60162.223
  16520.100   1.28809  -1.05188   60030.816
  16524.080   1.29064  -1.05297   60536.379
  16528.242   1.28672   -1.054645    60429.91
  16532.227   1.28466  -1.055    60763.41
  16536.393   1.28227   -1.055348   61158.883
  16540.563   1.28091  -1.05643    61071.32
  16544.734   1.27809  -1.05752    61048.73
  16548.906   1.27346  -1.05692   61019.109
  16553.084   1.27189  -1.05897   61211.457
  16557.262   1.27075  -1.06004   61446.773
  16561.441   1.26843  -1.06024   61569.063
  16565.807   1.26727  -1.06088   61446.316
  16569.990   1.26694  -1.062   61633.543
  16574.357   1.26622  -1.06247   61920.734
  16578.549   1.26546  -1.06339   62126.898
  16582.922   1.2634  -1.06359   62138.031
  16587.297   1.2626  -1.06418   62828.133
  16591.674   1.26022  -1.0648   62482.203
  16596.055   1.25873  -1.06627   62397.246
  16600.438   1.25573  -1.06643   62428.254
  16604.822   1.25359  -1.06713   62803.234
  16609.393   1.25063  -1.0681   62548.184
  16613.783   1.24784  -1.06889   63053.102
  16618.357   1.24468  -1.06978   62815.988
  16622.754   1.24152  -1.06957   62859.844
  16627.332   1.24008  -1.07041   62969.668
  16631.916   1.23834  -1.07041   63132.465
  16636.502   1.23825  -1.07202    63540.23
  16641.090    1.237749  -1.07302   63455.961
  16645.682   1.23705  -1.07377   63627.664
  16650.273   1.23516  -1.07481   63527.336
  16655.053   1.23366  -1.07588    63811.98
  16659.652   1.23169  -1.07636    63801.59
  16664.254   1.229   -1.076942   63629.168
  16669.043   1.22727  -1.07763   63718.719
  16673.832   1.22539  -1.07785   63863.238
  16678.625   1.22387   -1.078616   63995.727
  16683.420    1.222737  -1.08021   64291.184
  16688.221   1.21988   -1.080561   64427.609
  16693.023   1.21633  -1.08073   64200.004
  16697.828   1.21469  -1.0822   64557.371
  16702.635   1.2126  -1.08342   64658.703
  16707.445   1.20957  -1.08365   64856.008
  16712.445   1.20704  -1.0847   64669.281
  16717.260   1.20397  -1.08512   64471.523
  16722.264   1.20383  -1.08726   64842.734
  16727.271   1.20205   -1.087579   64807.914
  16732.281   1.20126  -1.08817   65042.066
  16737.295   1.19983  -1.08866   64823.184
  16742.313   1.19932  -1.08997   65214.273
  16747.332   1.19809  -1.09132   65349.332
  16752.355   1.19638  -1.09305   65002.359
  16757.381   1.19333  -1.09336   64866.355
  16762.596    1.189695  -1.09371    65162.32
  16767.629   1.18594  -1.09413   65077.254
  16772.852   1.18328  -1.09445    65037.16
  16777.889   1.18095  -1.09514   64569.035
  16783.117   1.18141  -1.09668   65571.875
  16788.348   1.17987  -1.09736   65550.688
  16793.584   1.1766   -1.097699   65192.469
  16798.822   1.17526  -1.09886   65291.223
  16804.063   1.17403  -1.10007   65486.941
  16809.309   1.172  -1.10104   65384.629
  16814.744   1.16948  -1.10155   65369.289
  16819.996    1.168181    -1.10312   65310.918
  16825.438   1.16572  -1.10302   65696.516
  16830.697   1.16144  -1.10251   65429.082
  16836.146   1.15927  -1.10404   65332.617
  16841.600   1.15869  -1.10516   65378.121
  16847.059   1.15665  -1.10509   65632.594
  16852.330   1.15475  -1.10629   65616.039
  16857.982   1.1542  -1.10662   65643.453
  16863.451   1.15547  -1.1076   66009.836
  16868.922   1.14958  -1.10889   65956.188
  16874.396   1.14623  -1.10994   65716.508
  16880.064   1.14508  -1.11158   66161.797
  16885.547   1.14193  -1.11173   66016.055
  16891.223   1.13942  -1.1125   65793.289
  16896.711   1.13787  -1.11338   65824.484
  16902.396    1.136764  -1.11457   65775.656
  16908.082   1.13412  -1.11446   65976.789
  16913.773   1.13287  -1.11615   65951.898
  16919.469   1.12959  -1.11651   65585.969
  16925.166     1.12744  -1.11682   65876.016
  16930.869   1.12573  -1.11756   65965.031
  16936.576   1.12459  -1.11907   66184.016
  16942.287   1.12203  -1.12014   66021.961
  16948.191   1.11887  -1.12103   65731.883
  16953.910   1.11773  -1.12267   65975.781
  16959.822   1.11659  -1.1243   66017.641
  16965.740   1.11282  -1.12473   65842.469
  16971.471   1.11087  -1.12505   66018.266
  16977.396   1.10907  -1.12613   66091.031
  16983.326    1.107886  -1.12847   65867.773
  16989.260   1.10506   -1.127975   65941.477
  16995.197   1.10267   -1.128192   65983.156
  17001.332   1.10063  -1.12913   66235.797