File: data/Sr/SrZrSi2O7_rt_02.xdi
# XDI/1.0 EXAFS Data Collector 1.1 AD.RGN
# Column.1: energy eV
# Column.2: mutrans
# Column.3: i0
# Beamline.name: SSRL 4-3 (?)
# Detector.I0: N2 15cm
# Detector.I1: N2+Ar 30cm
# Element.edge: K
# Element.symbol: Sr
# Mono.d_spacing: 1.920128
# Mono.name: Si(220)
# Mono.notes: (?) unfocussed, detuned 50%, clockwise at E=16300eV
# Sample.formula: SrZrSi2O7
# Sample.name: SrZrSi2O7
# Sample.prep: powder
# Sample.reference: none
# Sample.temperature: room temperature
# Scan.start_time: 1997-03-18 18:39:16
# ///
#    Note: mono d_spacing is nominal!
#-------------
#   energy   mutrans      i0
  15700.043  0.497629   69120.602
  15709.991  0.493871   68497.602
  15719.954  0.49106   68107.602
  15729.931  0.491407   67856.602
  15739.919  0.496208   66499.602
  15749.921  0.483642   67130.602
  15759.935  0.481522   66614.602
  15769.963  0.482812   66499.602
  15780.002  0.484945   66412.602
  15790.057  0.481686   65979.602
  15799.958  0.480055   65503.602
  15810.037  0.478725   65219.602
  15819.965  0.475019   64624.602
  15830.071  0.476544   64597.602
  15840.023  0.476611   64371.602
  15849.989   0.4724319   63793.602
  15859.968  0.474153   63784.602
  15869.959  0.475667   63694.602
  15879.964  0.475203   63383.602
  15889.980  0.473933   63015.602
  15900.011  0.472583   62699.602
  15910.055    0.472647   62472.602
  15919.941  0.469509   62046.602
  15930.011  0.467477   61628.602
  15939.925  0.468319   61485.602
  15950.020  0.46495   60971.602
  15959.959  0.465831   60765.602
  15970.079  0.464424   60277.602
  15980.045  0.462525   59853.602
  15990.021  0.463247   59723.602
  16000.012  0.462636   59372.602
  16010.014  0.462632   59097.602
  16020.030  0.460413   58676.602
  16030.059  0.459464   58223.602
  16039.929  0.46112   57950.602
  16049.982  0.461176   57525.602
  16060.049  0.462159   57099.602
  16069.959  0.467486   56831.602
  16080.051  0.476853   56388.602
  16081.248   0.4795724   56338.602
  16082.448  0.481309   56266.602
  16083.646  0.483779   56277.602
  16084.846   0.4863845   56188.602
  16086.215  0.488929   56067.602
  16087.415  0.495898   56157.602
  16088.613   0.5009519   56090.602
  16089.813  0.506345   55947.602
  16091.013  0.514067   55864.602
  16092.214  0.524411   55911.602
  16093.586  0.541595   55952.602
  16094.785  0.559415   55763.602
  16095.986  0.591562   55852.602
  16097.187  0.638563   55809.602
  16098.387  0.711552   55602.602
  16099.588  0.808644   55731.602
  16100.962  0.963434   55632.602
  16102.162   1.12908   55547.602
  16103.364   1.31166   55422.602
  16104.565   1.51888   55432.602
  16105.769   1.7078   55412.602
  16106.970   1.90222   55410.602
  16108.173   2.05761   55168.602
  16109.547   2.18763   55216.602
  16110.750   2.23079   55101.602
  16111.952   2.2118   55142.602
  16113.155   2.14919   54952.602
  16114.359   2.08125   54981.602
  16115.563   2.00382   54949.602
  16116.767   1.93417   54767.602
  16118.143   1.86619   54774.602
  16119.345   1.81455   54761.602
  16120.551   1.77854   54814.602
  16121.754   1.74546   54743.602
  16122.960   1.7236   54697.602
  16124.163   1.70912   54651.602
  16125.369   1.70242   54610.602
  16126.746   1.70036   54437.602
  16127.951   1.70619   54480.602
  16129.157   1.71452   54425.602
  16130.362   1.72141   54309.602
  16131.568   1.72686   54173.602
  16132.774   1.72885   54027.602
  16133.980   1.73093   54010.602
  16135.188   1.73057   53951.602
  16136.568   1.73502   54067.602
  16137.773   1.74207   53987.602
  16138.981    1.755895   54119.602
  16140.188   1.7712   54060.602
  16141.396   1.79237   54130.602
  16142.603    1.815008   54037.602
  16143.812   1.83627   53812.602
  16145.020   1.85608   53852.602
  16146.400   1.87266   53627.602
  16147.607   1.88021   53614.602
  16148.817   1.88195   53661.602
  16150.024   1.87546    107060.2
  16151.062   1.86811   107189.19
  16152.271   1.85608   106975.16
  16153.481   1.84278   106925.09
  16154.517   1.83271   106653.01
  16155.727   1.82431   106676.91
  16156.937   1.81416   106493.77
  16158.146    1.807187   106458.62
  16159.528   1.7994   106114.45
  16160.740   1.79263   106080.24
  16162.122   1.78595   105867.02
  16163.334   1.78036   105771.77
  16164.718   1.77469    105690.5
  16166.102    1.769351    105734.2
  16167.486   1.76369   105687.88
  16168.871   1.75876   105611.54
  16170.257   1.75492   105648.18
  16171.642   1.75028   105666.79
  16173.200   1.74435   105666.38
  16174.586   1.73872   105705.94
  16176.146   1.73194   105676.48
  16177.705   1.72573   105914.99
  16179.265   1.72071   106116.48
  16180.825    1.717065   106526.95
  16182.386   1.71525    106844.4
  16183.946   1.71653   107286.82
  16185.680   1.72142   107946.21
  16187.242   1.72698   108434.59
  16188.977    1.734886   108839.94
  16190.539   1.74259   109097.27
  16192.275   1.75085   109383.57
  16194.011   1.75799   109515.85
  16195.748   1.76426    109700.1
  16197.485   1.76764   109722.34
  16199.396   1.77018   109840.55
  16201.134   1.77035   110054.73
  16203.046   1.76753   110326.89
  16204.785   1.76335   110633.03
  16206.698   1.75816   110821.14
  16208.612   1.75341   111037.23
  16210.525   1.74858    111388.3
  16212.439   1.74362   111541.34
  16214.355   1.73966   111869.36
  16216.271   1.7352   112222.36
  16218.360   1.73113   112438.33
  16220.276   1.72755   112655.28
  16222.367   1.72463    113106.2
  16224.459   1.7213   113423.11
  16226.551   1.71668   113572.98
  16228.644   1.71387   113846.84
  16230.738   1.71055   114275.67
  16232.832   1.7067   114578.48
  16234.925   1.70366   114899.26
  16237.194   1.70103   115280.02
  16239.290   1.69852   115452.76
  16241.561   1.69614   116020.47
  16243.832   1.69369   116245.16
  16246.104   1.6918   116711.82
  16248.377   1.69059   117136.46
  16250.650   1.69076   117462.08
  16252.925   1.69151   117926.67
  16255.199   1.69469   118254.24
  16257.649    1.697215   118755.79
  16259.925   1.70047   118995.31
  16262.377   1.70396   119362.81
  16264.830   1.70864   119757.29
  16267.282   1.71369   120191.74
  16269.737    1.716926   120536.17
  16272.192   1.71973   120952.58
  16274.646   1.71946   121593.96
  16277.279   1.71718   121989.32
  16279.736   1.71376   122393.66
  16282.369   1.70954   122876.96
  16284.828   1.70475   123448.25
  16287.463   1.70005   123852.52
  16290.099   1.69491   124380.76
  16292.735   1.69002   124833.97
  16295.373   1.68599   125246.16
  16298.013   1.6822   125700.34
  16300.827   1.67904   126238.48
  16303.468   1.67722    126791.6
  16306.286   1.67575    127135.7
  16309.104   1.67433   127623.77
  16311.748   1.67408   127982.82
  16314.567   1.67435   128572.85
  16317.388   1.6754   129130.85
  16320.211   1.67689   129756.84
  16323.212   1.67794   130074.79
  16326.035   1.67977   130656.73
  16328.861   1.68038   131191.64
  16331.863   1.68004   131560.52
  16334.867   1.67805   132170.37
  16337.696   1.67561   132761.22
  16340.703    1.672937   133055.03
  16343.710   1.67063   133602.83
  16346.719   1.66897   134079.59
  16349.905   1.66733   134589.34
  16352.918   1.66579   135184.06
  16355.929   1.66458   135757.75
  16359.119   1.66292   136289.42
  16362.312   1.66093   136846.08
  16365.326   1.65959    137316.7
  16368.521   1.65839    138068.3
  16371.717   1.65685   138658.87
  16374.914   1.65522   139063.44
  16378.111   1.65344   139714.97
  16381.488   1.65172   140321.47
  16384.689    1.650487   141080.95
  16388.068   1.64943   141624.42
  16391.271   1.64826   141968.86
  16394.656   1.6465   142528.27
  16398.039   1.6449   142951.66
  16401.424   1.64294   143499.03
  16404.813   1.64129   144113.36
  16408.199   1.63947   144653.69
  16411.590   1.63749   145245.98
  16415.160   1.6365   145855.25
  16418.553   1.63464    146489.5
  16422.127   1.63365   147014.72
  16425.521   1.63225   147506.92
  16429.098   1.63089   148162.09
  16432.676   1.63038   148599.25
  16436.254   1.62994   149250.37
  16439.834   1.62898   149756.48
  16443.416   1.62828   150392.58
  16447.180   1.62703   150821.62
  16450.766   1.62581   151563.67
  16454.354   1.62432   152135.67
  16458.121   1.62279   152619.66
  16461.891   1.62181   153128.62
  16465.662   1.61996   153870.56
  16469.438   1.61829   154477.48
  16473.211   1.61706   155113.37
  16476.988   1.61562   155719.25
  16480.768    1.613761   156268.09
  16484.549    1.611588   156834.92
  16488.510   1.60967   157582.72
  16492.295   1.60694   158105.48
  16496.260   1.60491   158793.25
  16500.229   1.60283   159325.97
  16504.199   1.6014   159954.67
  16508.172   1.60021   160321.36
  16512.145   1.59925   160912.02
  16516.121   1.59799   161552.64
  16520.100   1.59664   161613.25
  16524.080   1.59564   162542.84
  16528.242   1.59352   163273.41
  16532.227    1.592136   163824.94
  16536.393   1.5905   164308.45
  16540.563   1.58887   164693.95
  16544.734   1.58668   165623.42
  16548.906   1.58506   166204.86
  16553.084   1.58336   166625.28
  16557.262   1.58132   167062.69
  16561.441   1.57955   167709.06
  16565.807   1.57802   168352.41
  16569.990   1.57691   168848.73
  16574.357   1.57565   169215.03
  16578.549   1.574   170261.31
  16582.922    1.572145   170840.56
  16587.297    1.570466    171547.8
  16591.674   1.56848   172141.02
  16596.055   1.56671   172650.19
  16600.438   1.56501   173133.36
  16604.822   1.56297   173499.48
  16609.393   1.56076   174127.61
  16613.783   1.55868   174565.69
  16618.357   1.55636   175110.77
  16622.754   1.55451    175584.8
  16627.332   1.553   176118.83
  16631.916   1.55055   176764.81
  16636.502   1.54882    177457.8
  16641.090   1.54728   177621.73
  16645.682   1.54544   178063.66
  16650.273   1.54399   178542.56
  16655.053   1.54247   178892.44
  16659.652   1.5405    179394.3
  16664.254   1.53904   179812.12
  16669.043   1.53674   179704.94
  16673.832   1.53469   180736.72
  16678.625   1.533   181505.47
  16683.420   1.53125    181357.2
  16688.221   1.52918   181936.92
  16693.023   1.52662   182127.61
  16697.828   1.52453   182499.28
  16702.635   1.52265   183363.92
  16707.445   1.52054   183125.53
  16712.445   1.51854   183533.12
  16717.260   1.51663    183928.7
  16722.264   1.51487   184393.25
  16727.271   1.51278   184590.77
  16732.281   1.51081   185175.27
  16737.295   1.50913   185416.75
  16742.313   1.50739    185944.2
  16747.332   1.50575   186000.62
  16752.355   1.50377   186878.03
  16757.381   1.5017   186887.41
  16762.596   1.49958   187253.77
  16767.629   1.49731   188066.11
  16772.852   1.49526   187770.41
  16777.889   1.49373    187646.7
  16783.117    1.490569   188389.97
  16788.348   1.48909    189011.2
  16793.584   1.48684   189088.42
  16798.822   1.48494   189407.61
  16804.063   1.48269   189676.78
  16809.309   1.48088   190082.92
  16814.744    1.478648   190223.05
  16819.996   1.47663   190875.14
  16825.438   1.47433   190635.22
  16830.697    1.472857   190700.27
  16836.146   1.47075    191075.3
  16841.600   1.46874    191165.3
  16847.059   1.46671   191725.28
  16852.330   1.46502   191653.23
  16857.982   1.46237   191530.17
  16863.451   1.4614   191672.08
  16868.922   1.45818   191695.97
  16874.396   1.45613   192471.83
  16880.064   1.45385   192109.66
  16885.547   1.4514   192594.47
  16891.223   1.44966   192251.27
  16896.711    1.447898   192180.03
  16902.396   1.44519   192414.78
  16908.082   1.4433    192571.5
  16913.773   1.44137   192286.19
  16919.469   1.43921   192207.86
  16925.166   1.43764   192115.52
  16930.869   1.43575   192494.14
  16936.576   1.43338   192229.73
  16942.287    1.431338   192341.31
  16948.191   1.42938   192371.87
  16953.910   1.42713   191832.41
  16959.822   1.42495   191731.91
  16965.740   1.42295   192092.39
  16971.471   1.42064   192441.86
  16977.396   1.41889    192064.3
  16983.326   1.41666    192008.7
  16989.260   1.41414   192207.09
  16995.197   1.4118   192295.45
  17001.332   1.40977    191962.8