File: data/Sr/SrZrSi2O7_15K_02.xdi
# XDI/1.0 EXAFS Data Collector 1.1 AD.RGN
# Column.1: energy eV
# Column.2: mutrans
# Column.3: murefer
# Column.4: i0
# Beamline.name: SSRL 4-3 (?)
# Detector.I0: N2 15cm
# Detector.I1: N2+Ar 30cm
# Detector.I2: Ar
# Element.edge: K
# Element.symbol: Sr
# Mono.d_spacing: 1.920128
# Mono.name: Si(220)
# Mono.notes: (?) unfocussed, detuned 50%, clockwise at E=16000eV
# Sample.formula: SrZrSi2O7
# Sample.name: SrZrSi2O7
# Sample.prep: powder
# Sample.reference: SrCO3
# Sample.temperature: 15K
# Scan.start_time: 1997-03-18 11:11:52
# ///
#    Note: mono d_spacing is nominal!
#-------------
#   energy   mutrans      murefer      i0
  15700.043  0.45308   -1.062762   40559.602
  15709.991  0.45163  -1.06445   39919.602
  15719.954  0.448413  -1.06733   39725.602
  15729.931  0.44632  -1.06859   39156.602
  15739.919  0.446166   -1.069175   38486.602
  15749.921  0.442868  -1.07196   38420.602
  15759.935  0.440112  -1.07378   38072.602
  15769.963  0.438433  -1.07558   37557.602
  15780.002  0.436507  -1.07764   37166.602
  15790.057  0.435055  -1.0791   36749.602
  15799.958  0.432793  -1.08125   36316.602
  15810.037  0.430448  -1.08347   36051.602
  15819.965  0.428564  -1.08536   35670.602
  15830.071  0.426086  -1.0874   35326.602
  15840.023  0.424132  -1.08949   34985.602
  15849.989  0.422613  -1.09101   34497.602
  15859.968  0.420523  -1.09286   34125.602
  15869.959  0.418214  -1.09496   33826.602
  15879.964  0.416624  -1.0968   33387.602
  15889.980  0.414591  -1.09898   33077.602
  15900.011  0.412684  -1.10089     32739.6
  15910.055  0.411211  -1.10266     32288.6
  15919.941  0.409761  -1.10456     31839.6
  15930.011    0.407718  -1.10627     31550.6
  15939.925  0.406157  -1.10837     31091.6
  15950.020  0.40361  -1.11038     30964.6
  15959.959  0.401705  -1.11241     30657.6
  15970.079  0.400265  -1.11456     30304.6
  15980.045  0.398039  -1.11607     29985.6
  15990.021  0.396543   -1.118237     29735.6
  16000.012  0.395966  -1.12     29128.6
  16010.014    0.394641  -1.12225     28852.6
  16020.030  0.39293  -1.12386     28579.6
  16030.059  0.392143  -1.12574     28185.6
  16039.929  0.391177   -1.127642     27865.6
  16049.982  0.391052  -1.12969     27656.6
  16060.049  0.391866   -1.131243     27424.6
  16069.959  0.395826  -1.1325     26998.6
  16080.051  0.404752  -1.13357     26618.6
  16081.248  0.406158  -1.13367     26702.6
  16082.448  0.408045  -1.13375     26590.6
  16083.646  0.410282  -1.13377     26639.6
  16084.846  0.412098  -1.13376     26775.6
  16086.215  0.416152   -1.133631     26576.6
  16087.415  0.420341  -1.13371     26514.6
  16088.613  0.424772  -1.13342     26514.6
  16089.813  0.431019   -1.133241     26337.6
  16091.013  0.438402  -1.13328     26326.6
  16092.214  0.448231  -1.13311     26215.6
  16093.586  0.464148  -1.1333     26230.6
  16094.785  0.483926  -1.13333     26165.6
  16095.986  0.517865  -1.13359     26125.6
  16097.187  0.567475  -1.13423     26108.6
  16098.387  0.642297  -1.13505     26074.6
  16099.588   0.7353696  -1.13602     26093.6
  16100.962  0.87923  -1.13521     26006.6
  16102.162   1.02118  -1.12929     25966.6
  16103.364   1.16974  -1.11585     25889.6
  16104.565   1.33195  -1.09007     25800.6
  16105.769   1.47268  -1.05666     25822.6
  16106.970   1.61549   -1.016685     25767.6
  16108.173   1.72735 -0.983095     25728.6
  16109.547   1.81345 -0.946964     25779.6
  16110.750    1.829501 -0.921738     25735.6
  16111.952   1.79822 -0.913831     25661.6
  16113.155   1.74132 -0.918588     25702.6
  16114.359   1.68696 -0.929124     25585.6
  16115.563   1.6292 -0.940706     25577.6
  16116.767   1.57909 -0.950174     25525.6
  16118.143   1.52529 -0.962796     25429.6
  16119.345   1.48545 -0.975139     25297.6
  16120.551   1.45472 -0.985559     25294.6
  16121.754   1.42728 -0.993666     25401.6
  16122.960   1.40939 -0.997287     25315.6
  16124.163   1.39884 -0.999632     25341.6
  16125.369    1.395204  -1.00024     25253.6
  16126.746   1.39758  -1.00123     25123.6
  16127.951   1.40229  -1.00173     25205.6
  16129.157   1.40979  -1.00195     25108.6
  16130.362   1.41666  -1.00194     24877.6
  16131.568   1.4181  -1.00119     24818.6
  16132.774    1.416301  -0.9998982     24728.6
  16133.980   1.41574 -0.997517     24817.6
  16135.188   1.4175 -0.995484     24704.6
  16136.568   1.42031 -0.992681     24906.6
  16137.773   1.42777 -0.990376     24884.6
  16138.981   1.44022 -0.987341     24799.6
  16140.188   1.45552 -0.9844     24714.6
  16141.396   1.47591 -0.981384     24650.6
  16142.603   1.49709 -0.978642     24543.6
  16143.812   1.51883 -0.975104     24498.6
  16145.020   1.53652 -0.973347     24554.6
  16146.400   1.55131 -0.971235     24519.6
  16147.607   1.55664  -0.9717028     24536.6
  16148.817   1.55451 -0.971443     24569.6
  16150.024   1.54741 -0.972496   48843.199
  16151.062   1.53874 -0.973359   48971.184
  16152.271   1.52806 -0.975042   48566.137
  16153.481   1.51613  -0.9767994   48518.063
  16154.517   1.50815 -0.97832   48393.953
  16155.727   1.4975 -0.978801   48398.816
  16156.937   1.4893  -0.9804156   48188.648
  16158.146    1.485086 -0.982381   48298.449
  16159.528   1.47894 -0.984921   48159.219
  16160.740   1.47406 -0.987162   48062.957
  16162.122   1.4673   -0.989474   47897.664
  16163.334   1.46159 -0.991781   47972.344
  16164.718    1.456377 -0.99349   47823.988
  16166.102   1.45259 -0.995672   47649.605
  16167.486   1.44794  -0.9966356   47613.191
  16168.871   1.44338 -0.997714   47516.746
  16170.257   1.43975 -0.999517    47363.27
  16171.642    1.433758  -1.00042   47391.762
  16173.200   1.42627  -1.00133   47501.227
  16174.586   1.41975  -1.00138   47321.656
  16176.146   1.41318  -1.00144   47395.059
  16177.705   1.40611  -1.00058    47567.43
  16179.265   1.40091 -0.999838    47767.77
  16180.825   1.39805 -0.998337   47866.078
  16182.386   1.39776 -0.997768   48277.355
  16183.946   1.40051 -0.997278   48515.605
  16185.680   1.40601 -0.995996    48639.82
  16187.242   1.41367 -0.995806   48734.008
  16188.977   1.42295 -0.995501   48839.164
  16190.539   1.43057 -0.995262   48919.289
  16192.275   1.43834 -0.995468   48861.383
  16194.011   1.44527 -0.99595   49068.445
  16195.748   1.45173 -0.996212   48740.477
  16197.485   1.45525 -0.996227    49073.48
  16199.396   1.45865 -0.996703   48873.449
  16201.134   1.45786 -0.996031   48755.391
  16203.046   1.45529 -0.996943   48988.301
  16204.785   1.45108 -0.997088    48968.18
  16206.698   1.44659 -0.997991   49031.027
  16208.612   1.44198 -0.998583   49136.848
  16210.525   1.43837 -0.999511   49049.633
  16212.439   1.43343  -1.00054   49291.391
  16214.355   1.42886  -1.0017   49243.117
  16216.271   1.42421  -1.0028   49372.809
  16218.360   1.42019  -1.00434   49411.473
  16220.276    1.417387  -1.00515   49389.109
  16222.367   1.41393  -1.00643   49531.711
  16224.459   1.40978  -1.00747   49785.281
  16226.551   1.40546  -1.00811   50010.824
  16228.644   1.40124  -1.00867   50064.336
  16230.738   1.39728  -1.00923   50015.816
  16232.832    1.393663  -1.00955   50064.266
  16234.925   1.39009  -1.01002   50254.684
  16237.194   1.38774  -1.01044    50244.07
  16239.290   1.38537  -1.01079   50371.426
  16241.561   1.38314  -1.01077   50377.754
  16243.832   1.38057  -1.01081   50649.051
  16246.104   1.37917  -1.01141   50604.313
  16248.377   1.3776  -1.01127   50856.547
  16250.650   1.37826  -1.01095   50963.754
  16252.925   1.3806  -1.01051   51096.926
  16255.199   1.38368  -1.01011   51057.066
  16257.649   1.38817  -1.01099    51152.18
  16259.925   1.39238  -1.01152   51365.258
  16262.377   1.39702  -1.012   51585.309
  16264.830   1.4033  -1.01251   51468.328
  16267.282   1.40948  -1.01349   51755.316
  16269.737   1.41381  -1.01372   51845.273
  16272.192   1.41558  -1.01344   51954.203
  16274.646   1.41534  -1.01361   51967.098
  16277.279    1.413417  -1.0139   52109.965
  16279.736    1.408763  -1.01388   52436.801
  16282.369   1.40342  -1.01498   52397.605
  16284.828   1.39706  -1.01552   52631.379
  16287.463   1.38969  -1.01607   52834.121
  16290.099   1.38364  -1.01743   52933.832
  16292.735   1.37772  -1.01838   53132.516
  16295.373   1.37152  -1.01899   53272.164
  16298.013   1.36674  -1.02011   53099.785
  16300.827   1.36323  -1.02087   53248.375
  16303.468   1.36093   -1.021449   53549.934
  16306.286   1.35966  -1.02216   53663.461
  16309.104   1.35937  -1.02262   53840.957
  16311.748   1.36087  -1.02321   54263.426
  16314.567   1.36312  -1.02334   54531.859
  16317.388   1.36643  -1.02389   54534.266
  16320.211   1.37027  -1.02442   54859.641
  16323.212   1.37434   -1.024166   54823.984
  16326.035   1.37584  -1.02376   55141.297
  16328.861   1.37599  -1.02438   55435.578
  16331.863   1.37387  -1.02475   55445.832
  16334.867   1.36975   -1.025339   55466.051
  16337.696   1.36587  -1.02556   55730.242
  16340.703   1.36255  -1.02619   55772.402
  16343.710   1.36023  -1.02686   55807.531
  16346.719   1.35866   -1.027855   56128.629
  16349.905   1.35815  -1.02877   56208.695
  16352.918   1.35736  -1.02974   56373.734
  16355.929   1.35604  -1.03031   56628.738
  16359.119   1.35448  -1.03106   56702.715
  16362.312   1.35373  -1.03224    56911.66
  16365.326   1.35292  -1.03253    57034.57
  16368.521   1.35203  -1.03285   57392.457
  16371.717   1.35041  -1.03418   57414.309
  16374.914   1.34708  -1.03487   57595.129
  16378.111   1.3446  -1.03499   57780.922
  16381.488   1.34322  -1.0359    57852.68
  16384.689   1.34233  -1.03642    57987.41
  16388.068   1.3419  -1.03707   58075.109
  16391.271    1.340197  -1.03679   58512.777
  16394.656     1.33835  -1.0376   58730.414
  16398.039   1.33666  -1.03854    58747.02
  16401.424   1.33524  -1.03903   58949.598
  16404.813   1.33275  -1.03958   58789.145
  16408.199   1.32985  -1.04038   59209.656
  16411.590   1.3271  -1.04075   59164.141
  16415.160   1.32608  -1.04179   59511.594
  16418.553   1.32535  -1.0422   59604.016
  16422.127    1.324173  -1.04233    59511.41
  16425.521    1.323089  -1.0427    59634.77
  16429.098   1.32264  -1.04371   60276.102
  16432.676   1.32422  -1.04451   60096.398
  16436.254   1.32493  -1.04489   60176.668
  16439.834   1.32479  -1.0459   60577.906
  16443.416   1.32214  -1.04586   60649.113
  16447.180   1.31977  -1.04649   60748.293
  16450.766   1.31798  -1.04747   61161.438
  16454.354   1.3163  -1.04789   61329.551
  16458.121   1.31535  -1.04856   61318.637
  16461.891    1.314234  -1.04946   61598.691
  16465.662   1.31219  -1.05004   61430.715
  16469.438   1.31065  -1.0505   61682.707
  16473.211   1.3103   -1.051255   61703.668
  16476.988   1.30964  -1.05154   61886.602
  16480.768    1.307622  -1.0521     61996.5
  16484.549    1.303984  -1.05297   61997.371
  16488.510   1.30053  -1.05459   62401.211
  16492.295   1.29711  -1.05508    62537.02
  16496.260   1.29358  -1.05507   62969.797
  16500.229   1.29041  -1.05623   62578.543
  16504.199   1.28852  -1.05719   62929.258
  16508.172    1.287655  -1.0576   62798.945
  16512.145   1.28887  -1.05837   62824.598
  16516.121   1.28986  -1.05895   63174.223
  16520.100   1.29048  -1.05934   63161.816
  16524.080   1.28972  -1.06034   63651.379
  16528.242   1.2889  -1.06117    63743.91
  16532.227   1.28711  -1.06216    63680.41
  16536.393   1.28397  -1.06177   63959.883
  16540.563   1.28209  -1.06293    64239.32
  16544.734   1.27971   -1.063845    64437.73
  16548.906   1.27553  -1.06412   63971.109
  16553.084   1.27305  -1.065   64325.457
  16557.262   1.27101   -1.065147   64235.773
  16561.441   1.27012  -1.06607   64793.063
  16565.807   1.26878  -1.06675   64733.316
  16569.990   1.26783  -1.06765   64868.543
  16574.357   1.26744  -1.06785   65054.734
  16578.549   1.26551  -1.06856   65181.898
  16582.922   1.26368  -1.06931   65188.031
  16587.297   1.26241  -1.0698   65682.133
  16591.674   1.26099  -1.07109   65498.203
  16596.055   1.25897  -1.07153   65395.246
  16600.438   1.25721  -1.07246   66138.258
  16604.822   1.25496  -1.07328   65857.234
  16609.393    1.252694  -1.07488    66429.18
  16613.783   1.24928   -1.075604   66231.102
  16618.357    1.246218   -1.076272   66622.984
  16622.754   1.24421   -1.076737   66818.844
  16627.332   1.24409  -1.07712   67056.672
  16631.916   1.24108  -1.0775   67159.461
  16636.502   1.24027  -1.07869   67066.227
  16641.090   1.24012  -1.07971   67100.961
  16645.682    1.239606  -1.08117   67227.664
  16650.273   1.23743  -1.08146   67270.336
  16655.053   1.23553   -1.082431   67374.977
  16659.652   1.23352  -1.08289   67942.586
  16664.254    1.231074  -1.08346   67566.172
  16669.043   1.22935  -1.0841   67478.719
  16673.832   1.22918  -1.08563   67965.234
  16678.625   1.22749  -1.08649   67940.727
  16683.420   1.22491  -1.08719    67974.18
  16688.221   1.22247  -1.08798   68193.609
  16693.023   1.22024  -1.08905   68155.008
  16697.828    1.218675  -1.08997   68492.367
  16702.635   1.21547  -1.08998   68614.703
  16707.445   1.21272  -1.09039   68444.008
  16712.445   1.21092  -1.092   68922.281
  16717.260   1.20845  -1.09283   68444.523
  16722.264   1.20636  -1.09314   68455.734
  16727.271   1.20439  -1.09407   68540.914
  16732.281   1.20349  -1.09457   68546.063
  16737.295   1.20285  -1.0951   68768.188
  16742.313    1.201736  -1.09625   68455.273
  16747.332   1.19977  -1.09747   68579.328
  16752.355   1.19768  -1.09842   68614.359
  16757.381    1.195573  -1.09929   68664.352
  16762.596   1.19231   -1.099863    68578.32
  16767.629   1.18875  -1.1004   68537.258
  16772.852   1.18668   -1.101446   68751.156
  16777.889   1.18306  -1.10144   68319.031
  16783.117   1.18319  -1.10275   68910.875
  16788.348    1.180511  -1.10308   69141.688
  16793.584   1.17898  -1.10464   69131.469
  16798.822   1.17649  -1.10524   68870.219
  16804.063   1.17479  -1.1059   69139.938
  16809.309   1.17217  -1.10653   68902.633
  16814.744   1.17036  -1.10762   69107.289
  16819.996    1.169779  -1.10912   69251.914
  16825.438   1.16709  -1.10974   69066.516
  16830.697   1.16533  -1.11053   69305.078
  16836.146   1.163  -1.11135   68936.617
  16841.600   1.16107  -1.11197   69158.125
  16847.059   1.1585  -1.11285   68958.594
  16852.330   1.15634  -1.11354   69188.039
  16857.982   1.15404  -1.11445   68918.453
  16863.451   1.15252   -1.115304   69177.836
  16868.922   1.15081   -1.116675   69394.188
  16874.396   1.14772  -1.11732   68952.508
  16880.064   1.14438  -1.11703   68963.797
  16885.547   1.14218  -1.11796   69241.055
  16891.223   1.14112  -1.11954   69480.289
  16896.711   1.13861  -1.11969   69354.484
  16902.396   1.13652  -1.12078   69249.656
  16908.082   1.1362   -1.122799   69350.789
  16913.773   1.13338  -1.12271   69318.898
  16919.469    1.131597  -1.12345   69478.969
  16925.166   1.12977  -1.12447   69431.016
  16930.869   1.12816  -1.12593   69228.031
  16936.576   1.12622  -1.12711   69274.016
  16942.287   1.12471  -1.12762   69422.961
  16948.191   1.12234   -1.128867   69477.883
  16953.910   1.11896  -1.12898   69075.781
  16959.822   1.11628   -1.129745   69102.641
  16965.740   1.11541  -1.13189   69613.469
  16971.471   1.11262  -1.13166   69535.266
  16977.396   1.1098   -1.132502   69364.031
  16983.326   1.11406  -1.13382   69803.773
  16989.260   1.1062  -1.13438   69432.477
  16995.197   1.10499   -1.135777   69475.156
  17001.332    1.102615  -1.13685   69391.797