File: data/Sr/SrZrSi2O7_15K_01.xdi
# XDI/1.0 EXAFS Data Collector 1.1 AD.RGN
# Column.1: energy eV
# Column.2: mutrans
# Column.3: murefer
# Column.4: i0
# Beamline.name: SSRL 4-3 (?)
# Detector.I0: N2 15cm
# Detector.I1: N2+Ar 30cm
# Detector.I2: Ar
# Element.edge: K
# Element.symbol: Sr
# Mono.d_spacing: 1.920128
# Mono.name: Si(220)
# Mono.notes: (?) unfocussed, detuned 50%, clockwise at E=16000eV
# Sample.formula: SrZrSi2O7
# Sample.name: SrZrSi2O7
# Sample.prep: powder
# Sample.reference: SrCO3
# Sample.temperature: 15K
# Scan.start_time: 1997-03-18 11:11:52
# ///
#    Note: mono d_spacing is nominal!
#-------------
#   energy   mutrans      murefer      i0
  15700.043  0.451659  -1.06579   43018.602
  15709.991   0.4490312  -1.06786   42504.602
  15719.954  0.446935  -1.06969   42132.602
  15729.931  0.445048  -1.07123   41561.602
  15739.919   0.4441162  -1.07259   41106.602
  15749.921   0.4399342   -1.075176   41172.602
  15759.935  0.437777  -1.07736   40744.602
  15769.963  0.436448  -1.07862   40252.602
  15780.002  0.434269  -1.08046   39868.602
  15790.057  0.43236  -1.08236   39436.602
  15799.958  0.430166  -1.08455   39039.602
  15810.037  0.428443  -1.08616   38651.602
  15819.965   0.4268575  -1.08797   38199.602
  15830.071  0.424551  -1.09016   37874.602
  15840.023   0.4230676  -1.09172   37424.602
  15849.989  0.421217  -1.09347   36951.602
  15859.968  0.418799  -1.09605   36728.602
  15869.959  0.416582    -1.09785   36363.602
  15879.964  0.415178  -1.09949   35950.602
  15889.980  0.413473  -1.10166   35482.602
  15900.011  0.411377  -1.10353   35115.602
  15910.055    0.409038  -1.10568   34908.602
  15919.941  0.407717  -1.10746   34459.602
  15930.011  0.405832  -1.10951   34103.602
  15939.925  0.404219  -1.11107   33678.602
  15950.020  0.40285  -1.11295   33219.602
  15959.959  0.40121  -1.11486   32948.602
  15970.079  0.399395   -1.116804     32517.6
  15980.045  0.397917  -1.11875     32137.6
  15990.021   0.3961764  -1.12097     31879.6
  16000.012   0.3944866  -1.12244     31524.6
  16010.014  0.392846   -1.124465     31222.6
  16020.030  0.392019  -1.12627     30767.6
  16030.059  0.391022  -1.1282     30417.6
  16039.929  0.390447  -1.12988     30169.6
  16049.982  0.390326  -1.13154     29892.6
  16060.049  0.391375  -1.13319     29527.6
  16069.959  0.394797  -1.13465     29091.6
  16080.051  0.403614  -1.13574     28874.6
  16081.248  0.404947  -1.13576     28971.6
  16082.448  0.407447  -1.1356     28788.6
  16083.646  0.409472  -1.13566     28759.6
  16084.846  0.41209  -1.13575     28697.6
  16086.215   0.4158408   -1.135543     28579.6
  16087.415   0.4202181  -1.13569     28508.6
  16088.613  0.424523  -1.13548     28472.6
  16089.813  0.430392  -1.13558     28535.6
  16091.013   0.4386368  -1.13548     28365.6
  16092.214  0.448506   -1.135105     28330.6
  16093.586  0.464396   -1.135111     28351.6
  16094.785  0.484292  -1.13527     28304.6
  16095.986  0.517794  -1.13537     28216.6
  16097.187    0.568072  -1.13611     28222.6
  16098.387   0.6449602  -1.13708     28160.6
  16099.588  0.738389  -1.13806     28118.6
  16100.962  0.880751  -1.13742     28176.6
  16102.162   1.02645  -1.13201     27976.6
  16103.364   1.16835  -1.11836     28121.6
  16104.565   1.33277   -1.092818     27956.6
  16105.769   1.47489  -1.06001     27964.6
  16106.970   1.61878   -1.021453     27906.6
  16108.173   1.73057 -0.987932     27809.6
  16109.547   1.81583 -0.953199     27881.6
  16110.750   1.83123 -0.929888     27883.6
  16111.952   1.79911 -0.920973     27763.6
  16113.155   1.74195 -0.926179     27665.6
  16114.359    1.686205 -0.935942     27628.6
  16115.563   1.6287 -0.947193     27603.6
  16116.767   1.5786 -0.95678     27568.6
  16118.143   1.52493 -0.96929     27483.6
  16119.345   1.48491 -0.98113     27504.6
  16120.551   1.45399 -0.991417     27394.6
  16121.754   1.42707 -0.999058     27404.6
  16122.960   1.40991  -1.00274     27249.6
  16124.163   1.39952  -1.00498     27401.6
  16125.369   1.39634  -1.00569     27225.6
  16126.746   1.39878  -1.00696     27158.6
  16127.951   1.40454  -1.00749     27156.6
  16129.157   1.41197  -1.008     27063.6
  16130.362   1.41707  -1.00733     27057.6
  16131.568   1.4181  -1.00653     26924.6
  16132.774   1.41716   -1.005028     26779.6
  16133.980   1.41668  -1.00302     26832.6
  16135.188   1.41737  -1.00044     26900.6
  16136.568   1.42117 -0.998021     26990.6
  16137.773   1.42939 -0.995128     26787.6
  16138.981   1.44133 -0.992728     26834.6
  16140.188   1.45672 -0.989859     26791.6
  16141.396   1.4779 -0.987146     26720.6
  16142.603   1.49847 -0.984141     26640.6
  16143.812   1.51898 -0.98117     26790.6
  16145.020   1.53868 -0.979228     26573.6
  16146.400    1.552967 -0.977905     26497.6
  16147.607   1.55765 -0.977232     26441.6
  16148.817   1.55665  -0.9778284     26315.6
  16150.024   1.54854 -0.978763   52714.199
  16151.062   1.53968 -0.979567   52608.184
  16152.271   1.52823 -0.981176   52511.137
  16153.481   1.51656 -0.9827   52389.063
  16154.517   1.50814 -0.984227   52305.953
  16155.727    1.498865 -0.985502   52032.816
  16156.937   1.48974 -0.986645   52286.648
  16158.146   1.48434 -0.988963   52255.449
  16159.528   1.47801 -0.991137   51990.219
  16160.740   1.47257 -0.993257   52098.957
  16162.122   1.46761 -0.996258   51765.664
  16163.334   1.4627 -0.99714   51622.344
  16164.718   1.45769 -0.999245   51546.988
  16166.102   1.4523  -1.00041   51613.605
  16167.486   1.44947  -1.00127   51542.191
  16168.871   1.44506  -1.0028   51189.746
  16170.257   1.43949  -1.00382    51181.27
  16171.642   1.43357  -1.00507   51282.762
  16173.200   1.42645  -1.00522   50999.227
  16174.586   1.41964  -1.00578   51286.656
  16176.146   1.41245  -1.00538   51265.059
  16177.705    1.406564  -1.00512    51295.43
  16179.265   1.40117  -1.00425    51559.77
  16180.825   1.39853  -1.00349   51667.078
  16182.386   1.39781  -1.00234   52014.355
  16183.946   1.40142  -1.00154   52153.605
  16185.680   1.40623   -1.000725    52355.82
  16187.242   1.41385  -1.00056   52587.008
  16188.977    1.423303  -1.0003   52758.164
  16190.539   1.43117  -1.00003   52726.289
  16192.275   1.43848  -1.00014   52838.383
  16194.011   1.44538  -1.00066   52965.445
  16195.748   1.45189  -1.00125   52784.477
  16197.485   1.45763  -1.00106    52846.48
  16199.396    1.461222  -1.00139   52810.449
  16201.134   1.45857  -1.00183   52776.391
  16203.046    1.455073  -1.00157   52958.301
  16204.785   1.45114   -1.002314    52906.18
  16206.698    1.446323  -1.00242   52832.027
  16208.612   1.44173   -1.002884   52967.848
  16210.525   1.43785  -1.0037   53033.633
  16212.439   1.43304  -1.00437   53321.391
  16214.355   1.42915  -1.0058   53040.117
  16216.271   1.42456  -1.00738   53196.809
  16218.360   1.42118  -1.00921   53204.473
  16220.276   1.41738  -1.01012   53478.109
  16222.367   1.41459  -1.01135   53230.711
  16224.459   1.41106  -1.01242   53424.281
  16226.551   1.40654  -1.01312   53697.824
  16228.644   1.4018  -1.01369   53801.336
  16230.738   1.3982  -1.01442   53862.816
  16232.832   1.39411  -1.01458   53872.266
  16234.925   1.39048  -1.01464   54001.684
  16237.194   1.3876   -1.014977    54094.07
  16239.290   1.38552  -1.01545   54316.426
  16241.561   1.38317  -1.01519   54394.754
  16243.832   1.38133  -1.01598   54556.051
  16246.104   1.37932  -1.01605   54691.313
  16248.377   1.37794  -1.01613   54931.547
  16250.650   1.37855  -1.0156   54939.754
  16252.925   1.38086  -1.01532   55211.926
  16255.199   1.38523  -1.01614   55136.066
  16257.649   1.38931  -1.01672    55403.18
  16259.925   1.39354  -1.01742   55361.258
  16262.377   1.39904   -1.018298   55449.309
  16264.830   1.4051  -1.01903   55677.328
  16267.282   1.4102   -1.018715   55713.316
  16269.737   1.41374   -1.018992   56113.273
  16272.192   1.4165  -1.01925   56133.203
  16274.646   1.41641  -1.01892   56075.098
  16277.279   1.41386  -1.01951   56289.965
  16279.736   1.40979  -1.02016   56319.801
  16282.369   1.40372  -1.021   56711.605
  16284.828   1.39809  -1.02168   56801.379
  16287.463   1.39142  -1.02256   57059.121
  16290.099   1.38476  -1.02296   57150.832
  16292.735   1.37814  -1.02367   57229.516
  16295.373   1.37266  -1.02474   57267.164
  16298.013   1.36775  -1.02538   57456.785
  16300.827   1.36406  -1.02603   57678.375
  16303.468   1.36236  -1.02709   57785.934
  16306.286   1.36087  -1.02746   57963.461
  16309.104   1.36049  -1.02825   58282.957
  16311.748   1.36188   -1.029007   58440.426
  16314.567   1.36416  -1.02982   58477.859
  16317.388   1.36747  -1.02992   58732.266
  16320.211   1.37163  -1.03005   58765.641
  16323.212   1.37588  -1.03058   59088.984
  16326.035   1.3781  -1.03082   59233.297
  16328.861   1.37822   -1.031417   59376.578
  16331.863    1.375845  -1.03156   59687.832
  16334.867   1.37166  -1.03191   59727.051
  16337.696   1.3678  -1.03248   59996.242
  16340.703   1.36478  -1.03311   59941.402
  16343.710   1.36189  -1.03324   60127.531
  16346.719   1.36029  -1.03367   60475.629
  16349.905   1.35955  -1.03445   60364.695
  16352.918   1.35901  -1.03583   60927.734
  16355.929   1.35801  -1.03648   60741.738
  16359.119   1.35622   -1.037031   60931.715
  16362.312   1.355  -1.03776    61197.66
  16365.326   1.35529  -1.03866    61272.57
  16368.521   1.3567  -1.0392   61517.457
  16371.717   1.35427  -1.03967   61727.309
  16374.914   1.35071  -1.03974   61873.129
  16378.111   1.34882  -1.04113   61931.922
  16381.488   1.34464  -1.04149    61959.68
  16384.689   1.34396  -1.0421    62272.41
  16388.068   1.34319  -1.04285   62460.109
  16391.271    1.342489  -1.04318   62337.777
  16394.656    1.340772  -1.04391   62832.414
  16398.039   1.33888  -1.04467    62948.02
  16401.424   1.33736  -1.04539   63009.598
  16404.813   1.33484  -1.04631   63289.145
  16408.199   1.33212   -1.047141   63621.656
  16411.590   1.32951  -1.04725   63502.141
  16415.160   1.32815  -1.04785   63861.594
  16418.553   1.32738  -1.04802   63726.016
  16422.127   1.32649  -1.04879    63918.41
  16425.521   1.32495  -1.04908    64139.77
  16429.098   1.32431   -1.049321   64614.102
  16432.676   1.32569  -1.04985   64650.398
  16436.254   1.32681  -1.05022   64563.668
  16439.834   1.32629  -1.05077   65143.906
  16443.416   1.32512  -1.05216   64995.113
  16447.180   1.32272  -1.05269   65180.293
  16450.766   1.32005  -1.05316   65447.438
  16454.354   1.31881  -1.05371   65656.555
  16458.121    1.317416  -1.05394   65384.637
  16461.891   1.31579  -1.05446   65955.688
  16465.662   1.3148  -1.05588   66044.711
  16469.438   1.31283  -1.05654   66377.711
  16473.211   1.31268  -1.05761   66153.672
  16476.988   1.31218  -1.05771   66523.602
  16480.768   1.31057  -1.05822     66566.5
  16484.549   1.30697  -1.05855   66853.367
  16488.510   1.30318  -1.05959   66903.211
  16492.295    1.299382   -1.060444   67021.016
  16496.260   1.29591   -1.061135   67143.797
  16500.229   1.29356  -1.06254   67329.539
  16504.199    1.291147  -1.06301   67506.258
  16508.172   1.29032  -1.06347   67624.945
  16512.145   1.29107  -1.0637   67781.602
  16516.121   1.2918  -1.0642   67780.227
  16520.100   1.29287  -1.06517   67823.813
  16524.080   1.29272  -1.06598   68272.375
  16528.242   1.29133  -1.06676   68256.914
  16532.227   1.28988  -1.06777   68451.414
  16536.393   1.28735  -1.0682   68458.883
  16540.563   1.28505  -1.06869    68543.32
  16544.734   1.28232  -1.06954   68917.734
  16548.906   1.28199  -1.0703   69243.109
  16553.084   1.27747  -1.07157   69288.461
  16557.262   1.2766  -1.0727   69427.773
  16561.441   1.27433  -1.07292   69315.063
  16565.807   1.27309  -1.07432   69509.313
  16569.990   1.27236  -1.07489   69417.539
  16574.357   1.2723  -1.07565   69782.734
  16578.549    1.271018  -1.07674   69733.898
  16582.922   1.26929  -1.07691   70202.031
  16587.297   1.2676  -1.07722   70088.133
  16591.674   1.26635  -1.07853   70462.203
  16596.055   1.26438  -1.07924   70877.242
  16600.438   1.26209  -1.08043   70323.258
  16604.822   1.25901  -1.08077   70505.234
  16609.393   1.25632  -1.08163    70762.18
  16613.783   1.25327  -1.08192   70978.102
  16618.357   1.24967  -1.08224   70743.984
  16622.754   1.24664  -1.08197   70873.844
  16627.332    1.245979  -1.08347   71014.672
  16631.916   1.24555  -1.08463   71477.461
  16636.502   1.24445   -1.084972   71596.227
  16641.090   1.24368  -1.0858   71751.961
  16645.682    1.243313   -1.086862   71866.664
  16650.273   1.24159  -1.08751   71534.336
  16655.053   1.23937  -1.08857   71581.977
  16659.652   1.2379  -1.08909   72037.586
  16664.254   1.23613  -1.08983   72177.172
  16669.043   1.23415  -1.09067   71826.719
  16673.832    1.233183   -1.091884   72349.234
  16678.625   1.23136  -1.09271   72362.727
  16683.420   1.22885  -1.09341    72251.18
  16688.221     1.22652  -1.09455   72585.609
  16693.023   1.22385  -1.09548   72519.008
  16697.828   1.22103  -1.09594   72173.367
  16702.635   1.21851  -1.09701   72631.703
  16707.445   1.21472  -1.09703   72449.008
  16712.445   1.21213  -1.09809   72369.281
  16717.260   1.21042  -1.09945   72692.523
  16722.264   1.2088  -1.10024   73110.734
  16727.271   1.20738  -1.1007   72478.914
  16732.281    1.206911  -1.10174   72622.063
  16737.295   1.20655  -1.10227   72983.188
  16742.313    1.205218  -1.10377   72622.273
  16747.332   1.20328  -1.10498   72851.328
  16752.355   1.20081  -1.10546   72674.359
  16757.381   1.19855  -1.1063   73049.352
  16762.596   1.19536  -1.10709    73090.32
  16767.629   1.19199  -1.10753   72807.258
  16772.852   1.18878  -1.10868   72776.156
  16777.889   1.18631  -1.10974   72026.031
  16783.117   1.18591  -1.11049   72957.875
  16788.348   1.18294   -1.110615   72821.688
  16793.584   1.18148  -1.1118   72743.469
  16798.822   1.17973  -1.11288   72949.219
  16804.063   1.17826   -1.113528   72979.938
  16809.309   1.17572  -1.11374   72844.633
  16814.744   1.17339  -1.1142   72592.289
  16819.996   1.1719  -1.11547   72691.914
  16825.438   1.17031  -1.11631   72886.516
  16830.697   1.16904  -1.11777   73010.078
  16836.146   1.16722  -1.11883   72929.617
  16841.600   1.16493  -1.11994   72583.125
  16847.059   1.16277  -1.12088   72612.594
  16852.330   1.1613  -1.12178   72701.039
  16857.982   1.15943  -1.12321   73030.453
  16863.451   1.15664  -1.12313   72982.836
  16868.922   1.15399  -1.12401   72551.188
  16874.396    1.151801   -1.125635   72648.508
  16880.064   1.15013  -1.1274   73120.797
  16885.547   1.14737  -1.12869   72767.055
  16891.223   1.14455  -1.12842   72649.289
  16896.711   1.14258  -1.129   72803.484
  16902.396   1.14157   -1.130816   72856.656
  16908.082   1.13938  -1.13111   72755.789
  16913.773   1.13754  -1.13217   72813.898
  16919.469   1.13569  -1.1325   72901.969
  16925.166   1.13376  -1.13365   72962.016
  16930.869   1.13164  -1.13449   72716.031
  16936.576   1.128  -1.13359   72598.016
  16942.287   1.12588  -1.13505   72537.961
  16948.191   1.12338  -1.13605   72268.883
  16953.910   1.1215  -1.13707   72394.781
  16959.822   1.11935  -1.13846   72343.641
  16965.740   1.1164  -1.13889   72400.469
  16971.471   1.1154  -1.14094   72331.266
  16977.396   1.11304  -1.14131   72621.031
  16983.326   1.11083  -1.1421   72554.773
  16989.260   1.10863  -1.14259   72416.477
  16995.197   1.10671  -1.14378   72302.156
  17001.332   1.10536  -1.14524   72131.797