File: data/Cu/Cu2S_13K_01.xdi
# XDI/1.0
# Column.1: energy eV
# Column.2: i0
# Column.3: itrans
# Column.4: irefer
# Beamline.name: SSRL 4-3
# Detector.I0: N2 15cm
# Detector.I1: Ar 30cm
# Detector.I2: Ar 15cm
# Element.edge: K
# Element.symbol: Cu
# Mono.d_spacing: 1.92009
# Mono.name: Si(220)
# Mono.notes: unfocused, detuned 50%,higher piezo, at E=9500eV
# Sample.formula: Cu2S
# Sample.name: Cu2S  cuprous sulfide
# Sample.prep: powder, mixed with B(OH)3
# Sample.reference: Cu metal foil (?)
# Sample.temperature: 13K
# Scan.start_time: 1996-07-27 16:01:27
# ///
#    Note: mono d_spacing is nominal!
#     exafs to K15
#     454  E XMU XMUR I0
#-------------
#   energy   i0   itrans  irefer
    8759.99  36329.3  172573  9157.4
    8769.98  35991.3  172668  9243.4
    8780  35553.3  172605  9292.4
    8789.99  35191.3  172622  9366.4
    8800  34770.3  172486  9422.41
    8809.99  34412.3  172543  9496.39
    8820.01  34037.3  172601  9570.4
    8830  33641.3  172373  9624.4
    8840.02  33254.3  172348  9680.4
    8850.01  32856.3  172156  9742.4
    8859.98  32504.3  172162  9824.39
    8870.02  32118.3  172007  9883.4
    8879.98  31738.3  171755  9943.4
    8890.02  31370.3  171612  9994.4
    8899.98  31014.3  171435  10051.4
    8910.02  30684.3  171438  10115.4
    8919.98  30294.3  170975  10173.4
    8930.02  29912.3  170579  10207.4
    8939.98  29598.3  170386  10265.4
    8950.01  29207.3  169666  10259.4
    8960.02  28840.3  168707  10234.4
    8960.78  28838.3  168625  10232.4
    8961.49  28799.3  168440  10225.4
    8962.25  28777.3  168415  10213.4
    8963.01  28706.3  168004  10195.4
    8963.77  28716.3  168048  10197.4
    8964.53  28693.3  167954  10185.4
    8965.29  28618.3  167558  10164.4
    8966.05  28629.3  167635  10156.4
    8966.81  28661.3  167780  10150.4
    8967.57  28687.3  167871  10152.4
    8968.33  28626.3  167445  10124.4
    8969.09  28631.3  167378  10109.4
    8969.85  28584.3  167008  10081.4
    8970.61  28530.3  166549  10022.4
    8971.37  28522.3  166200  9973.41
    8972.14  28438.3  165538  9911.4
    8972.9  28397.3  165039  9862.41
    8973.66  28387.3  164567  9800.4
    8974.37  28354.3  163864  9702.39
    8975.13  28331.3  162978  9558.4
    8975.89  28323.3  161922  9376.4
    8976.65  28292.3  160286  9108.4
    8977.42  28243.3  157758  8650.4
    8978.18  28198.3  153777  7830.4
    8978.94  28196.3  147153  6521.4
    8979.7  28190.3  134485  5053.4
    8980.47  28117.3  117059  3925.4
    8981.23  28120.3  102847  3327.4
    8981.99  28057.3  95090.5  3120.4
    8982.7  28026.3  91256.5  3067.4
    8983.47  28005.3  86812.5  2980.4
    8984.23  27944.3  81692.5  2802.4
    8985  27930.3  76973.5  2604.4
    8985.76  27902.3  73587.5  2445.4
    8986.52  27873.3  71544.5  2322.4
    8987.29  27854.3  69979.5  2210.4
    8988.05  27792.3  67810.5  2075.4
    8988.76  27781.3  65855.5  1946.4
    8989.53  27760.3  64328.5  1816.4
    8990.29  27757.3  63626.5  1704.4
    8991.06  27698.3  63229.5  1610.4
    8991.82  27690.3  63059.5  1535.4
    8992.59  27630.3  62837.5  1478.4
    8993.35  27611.3  62835.5  1451.4
    8994.07  27598.3  62901.5  1444.4
    8994.83  27537.3  62767.5  1453.4
    8995.6  27527.3  62415.5  1472.4
    8996.36  27503.3  61703.5  1490.4
    8997.13  27451.3  60814.5  1507.4
    8997.9  27423.3  60138.5  1514.4
    8998.66  27422.3  59730.5  1516.4
    8999.38  27385.3  59423.5  1506.4
    9000.14  27344.3  59174.5  1483.4
    9000.91  27324.3  59048.5  1451.4
    9001.68  27268.3  58954.5  1418.4
    9002.44  27288.3  59201.5  1398.4
    9003.16  27257.3  59414.5  1392.4
    9003.93  27213.3  59649.5  1401.4
    9004.69  27192.3  59886.5  1422.4
    9005.46  27147.3  59971.5  1441.4
    9006.23  27119.3  60028.5  1464.4
    9006.94  27123.3  60075.5  1482.4
    9007.71  27069.3  59985.5  1496.4
    9008.48  27041.3  59961.5  1512.4
    9009.25  27015.3  59919.5  1527.4
    9010.02  26974.3  59888.5  1541.4
    9010.53  26976.3  59937.5  1547.4
    9011.09  26946.3  59944.5  1552.38
    9011.66  26924.3  59981.4  1551.37
    9012.22  26919.2  60062.3  1556.34
    9012.78  26912.2  60157.2  1556.3
    9013.4  26870.2  60194.1  1550.26
    9014.01  26885.1  60378.9  1548.21
    9014.58  26868.1  60490.7  1543.15
    9015.19  26864  60667.5  1541.09
    9015.86  26838  60869.3  1535.02
    9016.47  26806.9  61046  1524.94
    9017.14  26818.8  61369.7  1518.85
    9017.76  26792.8  61597.4  1508.75
    9018.42  26784.7  61911.1  1500.65
    9019.14  26765.6  62225.8  1487.54
    9019.81  26768.5  62559.4  1480.42
    9020.48  26766.4  62878  1474.29
    9021.2  26728.3  63133.6  1463.16
    9021.91  26712.1  63403.1  1453.01
    9022.63  26700  63638.6  1444.86
    9023.35  26684.9  63821.1  1434.71
    9024.12  26664.7  63962.6  1429.54
    9024.84  26638.6  64009.1  1424.37
    9025.61  26679.4  64166.5  1424.19
    9026.39  26681.3  64185.9  1425
    9027.21  26662.1  64098.3  1430.8
    9027.98  26644  63980.6  1440.6
    9028.75  26656.8  63885.9  1454.39
    9029.57  26650.6  63717.3  1466.17
    9030.4  26620.4  63464.5  1476.94
    9031.22  26602.2  63213.8  1489.71
    9032.05  26572  62920  1498.47
    9032.92  26572.8  62657.2  1513.22
    9033.8  26584.6  62416.4  1520.96
    9034.62  26579.4  62163.6  1526.7
    9035.5  26562.1  61858.7  1529.42
    9036.42  26516.9  61498.8  1527.14
    9037.3  26468.7  61171.9  1523.85
    9038.23  26407.4  60802  1520.56
    9039.1  26147.2  60011  1509.26
    9040.03  26112.9  59640  1499.95
    9040.96  26581.6  60563  1507.63
    9041.94  26540.3  60219  1501.3
    9042.87  26543.1  60014.9  1499.97
    9043.85  26713.8  60206.8  1503.62
    9044.83  26713.5  60027.7  1502.27
    9045.81  26708.2  59862.6  1501.92
    9046.79  26703.9  59714.4  1502.55
    9047.77  26698.6  59599.2  1498.18
    9048.81  26673.3  59460  1493.8
    9049.79  26629.9  59313.8  1485.41
    9050.83  26686.6  59403.6  1482.02
    9051.86  26658.3  59339.3  1481.61
    9052.95  26632.9  59300  1482.2
    9053.98  26671.6  59429.6  1484.78
    9055.07  26653.2  59448.3  1480.36
    9056.16  26660.8  59554.9  1477.92
    9057.24  26671.5  59704.5  1476.48
    9058.33  26687.1  59908.1  1475.03
    9059.42  26685.7  60110.6  1469.58
    9060.56  26707.3  60430.2  1470.11
    9061.65  26698.9  60713.7  1469.64
    9062.79  26711.5  61090.1  1469.16
    9063.93  26696.1  61424.6  1465.67
    9065.12  26699.7  61847  1465.18
    9066.27  26715.3  62292.4  1467.67
    9067.46  26737.9  62775.8  1470.16
    9068.6  26751.4  63218.2  1468.64
    9069.8  26721  63541.5  1461.12
    9071.04  26731.5  63974.8  1455.58
    9072.24  26739.1  64379.1  1461.04
    9073.43  26739.6  64710.3  1468.49
    9074.68  26741.2  65053.6  1475.94
    9075.93  26769.7  65417.8  1493.37
    9077.18  26800.2  65765  1511.8
    9078.43  26797.7  65987.1  1532.22
    9079.68  26789.2  66171.3  1546.63
    9080.98  26813.7  66400.4  1561.04
    9082.28  26828.2  66560.5  1578.43
    9083.58  26818.7  66609.5  1586.82
    9084.89  26872.2  66775.6  1605.21
    9086.19  26852.7  66733.6  1611.58
    9087.49  26877.1  66748.6  1615.95
    9088.85  26904.6  66745.5  1625.3
    9090.21  26911.1  66660.5  1630.66
    9091.57  26894.5  66523.4  1634
    9092.92  26902.9  66412.3  1648.34
    9094.28  26938.4  66384.1  1662.66
    9095.69  26843.8  66025  1662.98
    9097.05  26813.2  65803.8  1666.3
    9098.46  26860.7  65789.6  1679.6
    9099.88  26839.1  65602.4  1675.9
    9101.34  26841.5  65466.1  1672.19
    9102.75  26820.9  65268.8  1665.47
    9104.17  26849.3  65208.5  1653.74
    9105.64  26883.6  65169.2  1645.01
    9107.1  26906  65128.9  1636.27
    9108.57  26908.4  65074.5  1623.52
    9110.04  26946.8  65141.1  1619.77
    9111.56  26951.1  65155.7  1613
    9113.03  26956.5  65220.2  1608.23
    9114.55  26949.8  65278.7  1607.45
    9116.07  26947.2  65386.2  1612.66
    9117.6  26963.5  65558.7  1615.87
    9119.12  26984.8  65751.2  1621.06
    9120.7  26972.1  65910.6  1622.25
    9122.22  27002.5  66170  1613.44
    9123.8  26986.8  66358.4  1598.61
    9125.38  27046.1  66734.8  1589.78
    9126.96  27038.4  66957.1  1571.94
    9128.59  27057.7  67271.4  1563.09
    9130.17  27047.9  67522.7  1553.23
    9131.8  27105.2  67942.9  1557.37
    9133.39  27123.5  68276.2  1562.5
    9135.02  27134.7  68582.4  1568.62
    9136.71  27110  68819.6  1580.73
    9138.34  27141.3  69188.7  1593.83
    9139.98  27131.5  69435.9  1610.93
    9141.67  27131.7  69703  1626.02
    9143.36  27065  69791.1  1639.11
    9145.06  26868.2  69515.1  1659.18
    9146.75  26931.4  69966.2  1689.25
    9148.44  27309.6  71135.2  1725.31
    9150.19  27355.8  71401.2  1760.36
    9151.88  27344  71512.1  1784.4
    9153.63  27382.2  71775.1  1818.44
    9155.38  27212.4  71452  1843.46
    9157.13  27371.6  71992.9  1877.49
    9158.93  27367.8  72057.8  1894.5
    9160.68  27389.9  72157.6  1889.5
    9162.49  27620.1  72759.4  1890.5
    9164.29  27758.2  73255.2  1882.49
    9166.1  27736.4  73242  1864.48
    9167.9  27740.5  73308.7  1844.45
    9169.71  27775.7  73454.5  1827.42
    9171.57  27741.8  73431.1  1813.38
    9173.38  27771.9  73553.8  1807.33
    9175.25  27754  73574.5  1802.27
    9177.11  27775.1  73705.1  1802.21
    9178.98  27808.2  73879.7  1806.14
    9180.9  27829.3  74052.3  1812.06
    9182.76  27830.4  74172.8  1818.97
    9184.68  27803.5  74235.4  1826.88
    9186.6  27821.6  74412.9  1831.78
    9188.52  27817.6  74554.3  1835.67
    9190.45  27863.7  74825.8  1847.55
    9192.37  27879.8  75030.2  1857.42
    9194.35  27865.8  75174.6  1867.29
    9196.28  27866.9  75363  1871.15
    9198.26  27918.9  75703.4  1878
    9200.24  27935.9  75946.7  1877.84
    9202.22  27966  76227  1871.68
    9204.2  27953  76413.3  1856.51
    9206.24  27916  76535.6  1842.33
    9208.23  27950  76840.8  1839.15
    9210.27  27979  77145  1843.95
    9212.31  27997  77413.2  1848.75
    9214.35  28017  77679.3  1861.54
    9216.39  28029  77928.5  1869.32
    9218.49  28065.9  78220.6  1888.1
    9220.53  28048.9  78363.6  1900.86
    9222.63  28085.9  78661.7  1918.62
    9224.73  28084.8  78852.8  1943.38
    9226.83  28073.8  79023.8  1969.12
    9228.94  28070.7  79241.8  1992.86
    9231.04  28104.6  79543.8  2015.59
    9233.2  28093.6  79746.7  2040.31
    9235.36  28121.5  80054.7  2065.02
    9237.46  28130.4  80287.6  2078.73
    9239.63  28175.3  80639.4  2091.42
    9241.84  28152.2  80799.3  2095.12
    9244.01  28152.1  81006.1  2095.8
    9246.17  28198  81341.9  2102.47
    9248.39  28209.9  81578.6  2107.14
    9250.61  28204.8  81763.4  2114.8
    9252.83  28218.6  82005.1  2119.45
    9255.06  28245.5  82291.8  2128.1
    9257.28  28269.3  82573.4  2132.73
    9259.51  28292.2  82864.1  2136.36
    9261.79  28268  83026.8  2135.99
    9264.07  28259.9  83228.4  2137.6
    9266.35  28277.7  83509  2136.21
    9268.64  28268.5  83706.5  2138.8
    9270.93  28276.4  83964  2140.39
    9273.22  28305.2  84266.5  2145.98
    9275.5  28295  84448  2147.55
    9277.85  28295.8  84684.4  2151.12
    9280.19  28345.6  85060.9  2160.68
    9282.54  28316.4  85196.3  2164.23
    9284.89  28300.1  85388.7  2169.78
    9287.24  28329.9  85700  2173.31
    9289.64  28356.7  86003.4  2178.84
    9291.99  28340.4  86142.7  2187.37
    9294.4  28367.2  86440  2195.88
    9296.81  28347.9  86585.2  2199.39
    9299.22  28370.7  86848.4  2210.88
    9301.63  28364.4  87019.7  2220.38
    9304.05  28365.2  87235.8  2230.86
    9306.46  28408.9  87571.1  2250.34
    9308.93  28352.6  87626.1  2260.8
    9311.4  28388.3  87953.3  2280.26
    9313.88  28347  88061.4  2295.71
    9316.35  28345.7  88277.4  2313.16
    9318.83  28393.4  88670.5  2336.6
    9321.31  28396.1  88899.5  2343.03
    9323.84  28361.8  89040.5  2348.45
    9326.32  28401.4  89422.4  2355.86
    9328.86  28392.1  89644.4  2366.27
    9331.4  28388.7  89896.3  2377.67
    9333.94  28434.4  90343.2  2399.06
    9336.48  28591  91096  2428.44
    9339.08  28547.7  91274.9  2443.82
    9341.62  28561.3  91608.8  2460.19
    9344.23  28552.9  91880.5  2474.54
    9346.83  28539.6  92153.3  2479.9
    9349.43  28554.2  92484  2492.24
    9352.04  28449.8  92454.7  2491.58
    9354.65  28427.4  92685.5  2501.91
    9357.26  28425  92978.2  2512.23
    9359.92  28429.6  93287.8  2516.55
    9362.53  28409.1  93508.5  2522.85
    9365.2  28399.7  93771  2532.15
    9367.88  28348.3  93902.6  2536.44
    9370.55  28374.8  94264.2  2552.73
    9373.28  28374.4  94555.7  2556
    9375.95  28382.9  94876.2  2564.27
    9378.63  28367.5  95097.7  2571.53
    9381.37  28361  95367.1  2576.78
    9384.1  28335.6  95555.6  2583.03
    9386.84  28393.1  96021  2595.26
    9389.58  28389.6  96282.3  2600.49
    9392.33  28346.1  96421.7  2607.72
    9395.13  28348.6  96714.1  2621.93
    9397.87  28311.1  96858.4  2631.14
    9400.67  28382.6  97376.6  2655.34
    9403.48  28371.1  97620.9  2660.53
    9406.23  28288.6  97598.1  2672.71
    9409.09  28308  97944.4  2687.89
    9411.91  28300.5  98178.6  2707.06
    9414.72  28278  98365.7  2731.22
    9417.59  28261.4  98593.9  2748.37
    9420.4  28253.9  98817  2763.52
    9423.28  28233.3  99037  2777.65
    9426.15  28217.7  99250.1  2787.79
    9429.03  28207.2  99497.2  2798.91
    9431.91  28211.6  99808.2  2804.02
    9434.79  28216  100093  2812.13
    9437.73  28158.4  100184  2821.23
    9440.62  28158.8  100490  2826.32
    9443.56  28147.2  100747  2834.4
    9446.51  28139.6  101040  2844.48
    9449.46  28132  101344  2866.55
    9452.41  28073.3  101466  2874.61
    9455.36  28081.7  101814  2891.66
    9458.37  28083.1  102158  2902.71
    9461.32  28043.4  102290  2868.74
    9464.34  28016.8  102669  2946.77
    9467.35  27988.1  102884  2957.8
    9470.38  27941.4  103072  2962.81
    9473.4  27924.8  103355  2971.82
    9476.42  27943.1  103779  2982.82
    9479.44  27908.4  103987  2991.81
    9482.53  27904.7  104352  2999.79
    9485.56  27862  104550  3015.77
    9488.64  27843.3  104818  3023.74
    9491.73  27820.6  105079  3032.7
    9494.83  27834.9  105499  3042.65
    9497.92  27776.2  105600  3049.6
    9501.02  27815.5  106086  3069.54
    9504.12  27751.7  106170  3078.47
    9507.27  27743  106480  3086.39
    9510.38  27750.2  106831  3105.31
    9513.54  27690.5  106959  3119.21
    9516.71  27672.7  107211  3132.11
    9519.88  27607  107307  3146
    9523.05  27578.2  107526  3164.89
    9526.22  27523.4  107653  3190.76
    9529.45  27342.6  107286  3192.63
    9532.63  27571.8  108491  3226.49
    9535.86  27485  108499  3236.34
    9539.1  27474.2  108805  3249.19
    9542.28  27436.4  108992  3264.03
    9545.53  27385.6  109137  3274.86
    9548.83  27353.8  109368  3291.68
    9552.08  27285.9  109449  3307.5
    9555.33  27254.1  109679  3317.31
    9558.64  27242.3  109966  3334.11
    9561.9  27186.4  110101  3349.9
    9565.21  27169.5  110369  3368.68
    9568.53  27144.7  110639  3383.46
    9571.85  27102.8  110830  3398.23
    9575.18  27047.9  110947  3413.99
    9578.5  27032.1  111234  3424.74
    9581.89  26995.2  111461  3444.49
    9585.22  26970.3  111735  3462.23
    9588.61  26930.4  111941  3475.96
    9591.95  26914.5  112280  3483.68
    9595.34  26897.5  112589  3504.4
    9598.74  26887.6  112929  3529.1
    9602.15  26795.7  112964  3537.8
    9605.61  26753.8  113217  3552.5
    9609.02  26724.8  113497  3568.18
    9612.43  26725.9  113897  3577.86
    9615.9  26645.9  113966  3588.53
    9619.37  26646  114380  3610.19
    9622.79  26632  114703  3626.84
    9626.27  26573  114855  3643.49
    9629.75  26571  115232  3665.13
    9633.23  26516.1  115384  3673.76
    9636.78  26490.1  115674  3700.38
    9640.27  26451.1  115902  3711
    9643.82  26430.1  116212  3728.61
    9647.32  26385.1  116387  3757.2
    9650.88  26312  116479  3773.79
    9654.43  26326  116901  3797.38
    9658  26281  117073  3814.96
    9661.56  26237.9  117250  3832.52
    9665.13  26165.9  117234  3848.09
    9668.7  26143.9  117522  3863.64
    9672.34  26092.8  117747  3887.19
    9675.91  26069.7  118046  3904.73
    9679.55  26014.7  118192  3928.26
    9683.14  25986.6  118469  3941.78
    9686.78  25943.5  118705  3959.3
    9690.43  25908.4  118968  3969.81
    9694.08  25853.3  119121  3979.31
    9697.8  25832.2  119417  4002.79
    9701.45  25775.1  119553  4023.28
    9705.11  25708  119634  4039.76
    9708.83  25739.9  120211  4058.23
    9712.5  25755.8  120667  4086.69
    9716.23  25687.6  120763  4100.14
    9719.96  25592.5  120776  4106.59
    9723.7  25605.3  121260  4130.03
    9727.43  25531.2  121316  4148.46
    9731.17  25528  121714  4170.88
    9734.98  25439.9  121736  4189.3
    9738.73  25419.7  122048  4205.71
    9742.48  25364.5  122220  4221.11
    9746.29  25308.3  122387  4233.5
    9750.11  25260.1  122596  4253.88
    9753.93  25226.9  122883  4274.26
    9757.69  25197.7  123157  4292.63
    9761.58  25153.5  123405  4307
    9765.41  25117.3  123653  4327.35
    9769.24  25079.1  123895  4344.7
    9773.08  25027.8  124084  4358.03
    9776.98  25014.6  124482  4388.37
    9780.82  24951.4  124587  4403.69
    9784.73  24936.1  124935  4437
    9788.64  24886.9  125141  4447.31
    9792.55  24838.6  125343  4468.61
    9796.41  24816.3  125720  4497.91
    9800.39  24718.1  125690  4506.19
    9804.31  24707.8  126052  4531.47
    9808.24  24685.5  126398  4558.74
    9812.17  24653.2  126679  4581
    9816.17  24590.9  126803  4595.26
    9820.1  24555.6  127057  4620.5
    9824.1  24616.3  127836  4656.74
    9828.11  24525  127845  4673.97
    9832.12  24439.6  127839  4684.2
    9836.13  24375.3  127929  4694.41
    9840.15  24377  128407  4722.62
    9844.17  24352.6  128728  4747.82
    9848.19  24333.3  129060  4777.02
    9852.28  24269.9  129223  4799.2