File: data/Cu/Cu_azurite_13K_01.xdi
# XDI/1.0
# Column.1: energy eV
# Column.2: i0
# Column.3: itrans
# Column.4: irefer
# Beamline.name: SSRL 4-3
# Detector.I0: N2 15cm
# Detector.I1: Ar 30cm
# Detector.I2: Ar 15cm
# Element.edge: K
# Element.symbol: Cu
# Mono.d_spacing: 1.92009
# Mono.name: Si(220)
# Mono.notes: unfocused, detuned 50%,higher piezo, at E=9010eV
# Sample.formula: Cu3OH_2CO3_2
# Sample.name: Cu3(CO3)2(OH)2  azurite
# Sample.prep: powder, mixed with B(OH)3
# Sample.reference: Cu metal foil (?)
# Sample.temperature: 13K
# Scan.start_time: 1996-07-25 16:43:38
# ///
#    Note: mono d_spacing is nominal!
#     exafs to K15
#     432  E XMU XMUR I0
#-------------
#   energy   i0   itrans  irefer
    8759.98  25833.9  18256.2  8669.8
    8770.02  25452.9  18172.2  8707.8
    8779.99  25164.9  18132.2  8757.8
    8789.98  24827.9  18077.2  8789.8
    8800  24499.9  18013.2  8838.8
    8809.99  24167.9  17943.2  8884.8
    8820  23837.9  17878.2  8925.8
    8830  23578.9  17841.2  8986.8
    8840.01  23266.9  17787.2  9028.8
    8850  22960.9  17718.2  9072.8
    8860.02  22649.9  17653.2  9116.8
    8870.01  22336.9  17579.2  9147.8
    8879.98  22021.9  17489.2  9180.8
    8890.01  21719.9  17417.2  9212.8
    8899.98  21415.9  17333.2  9233.8
    8910.02  21171.9  17291.2  9290.8
    8919.98  20862.9  17191.2  9303.8
    8930.02  20401.9  16963.2  9245.8
    8940.02  20077.9  16833.2  9236.8
    8950.01  19789.9  16712.2  9223.8
    8960.02  19479.9  16535.2  9154.8
    8960.52  19445.9  16505.2  9139.8
    8960.98  19431.9  16501.2  9131.8
    8961.48  19407.9  16484.2  9122.8
    8961.99  19350.9  16433.2  9102.8
    8962.5  19296.9  16392.2  9067.8
    8963  19241.9  16353.2  9064.8
    8963.51  19245.9  16355.2  9063.8
    8964.02  19235.9  16340.2  9056.8
    8964.52  19174.9  16294.2  9020.8
    8964.98  19141.9  16268.2  8998.8
    8965.49  19095.9  16229.2  8972.8
    8965.99  19129.9  16254.2  8983.8
    8966.5  19137.9  16260.2  8982.8
    8967.01  19146.9  16268.2  8984.8
    8967.51  19118.9  16242.2  8955.8
    8968.02  19042.9  16181.2  8911.8
    8968.48  19014.9  16150.2  8889.8
    8968.98  18983.9  16120.2  8856.8
    8969.49  18987.9  16122.2  8864.8
    8970  18953.9  16080.2  8832.8
    8970.51  18919.9  16047.2  8802.8
    8971.01  18875.9  16007.2  8769.8
    8971.52  18860.9  15985.2  8751.8
    8971.98  18840.9  15959.2  8714.8
    8972.48  18798.9  15912.2  8675.8
    8972.99  18770.9  15873.2  8633.8
    8973.5  18784.9  15871.2  8605.8
    8974.01  18755.9  15828.2  8554.8
    8974.51  18718.9  15776.2  8492.8
    8975.02  18694.9  15726.2  8412.8
    8975.48  18674.9  15678.2  8335.8
    8975.99  18691.9  15638.2  8226.8
    8976.5  18660.9  15531.2  8065.8
    8977  18655.9  15429.2  7855.8
    8977.51  18620.9  15324.2  7550.8
    8978.02  18601.9  15272.2  7123.8
    8978.48  18567.9  15235.2  6566.8
    8978.99  18562.9  15219.2  5856.8
    8979.5  18570.9  15202.2  5170.8
    8980  18545.9  15128.2  4609.8
    8980.51  18514.9  15024.2  4197.8
    8981.02  18499.9  14883.2  3945.8
    8981.48  18467.9  14716.2  3836.8
    8981.99  18472.9  14508.2  3790.8
    8982.5  18433.9  14204.2  3752.8
    8983  18414.9  13821.2  3692.8
    8983.51  18405.9  13282.2  3564.8
    8984.02  18392.9  12523.2  3346.8
    8984.48  18356.9  11580.2  3076.8
    8984.99  18353.9  10373.2  2749.8
    8985.5  18336.9  9123.2  2424.8
    8986.01  18298.9  8021.2  2138.8
    8986.52  18284.9  7187.2  1919.8
    8986.98  18260.9  6671.2  1776.8
    8987.49  18264.9  6300.2  1660.8
    8987.99  18262.9  6058.2  1561.8
    8988.5  18251.9  5868.2  1475.8
    8989.01  18211.9  5656.2  1385.8
    8989.52  18205.9  5401.2  1293.8
    8989.98  18162.9  5093.2  1209.8
    8990.49  18173.9  4686.2  1112.8
    8991  18152.9  4220.2  1027.8
    8991.51  18134.9  3734.2   947.8
    8992.02  18112.9  3274.2   877.8
    8992.48  18128.9  2947.2   832.8
    8992.99  18108.9  2660.2   796.8
    8993.5  18067.9  2464.2   774.799
    8994.01  18040.9  2347.2   761.8
    8994.52  18041.9  2285.2   758.8
    8994.98  18038.9  2239.2   757.8
    8995.49  18034.9  2202.2   760.8
    8996  18006.9  2165.2   762.8
    8996.51  17966.9  2113.2   759.8
    8997.02  17942.9  2065.2   758.8
    8997.48  17926.9  2024.2   758.8
    8997.99  17954.9  1985.2   758.8
    8998.5  17945.9  1961.2   757.8
    8999.01  17926.9  1951.2   756.8
    8999.52  17907.9  1973.2   753.8
    8999.98  17909.9  2024.2   753.8
    9000.49  17888.9  2097.2   756.801
    9001.01  17860.9  2180.2   758.8
    9001.52  17869.9  2286.2   759.8
    9001.98  17847.9  2377.2   764.8
    9002.49  17815.9  2469.2   766.8
    9003  17801.9  2551.2   767.8
    9003.51  17800.9  2633.2   775.8
    9004.02  17772.9  2694.2   783.799
    9004.48  17748.9  2746.2   793.8
    9004.99  17751.9  2798.2   802.8
    9005.51  17726.9  2845.2   813.8
    9006.02  17716.9  2898.2   825.8
    9006.48  17719.9  2943.2   834.8
    9006.99  17687.9  2995.2   843.8
    9007.5  17661.9  3047.2   852.8
    9008.01  17676.9  3100.2   861.8
    9008.52  17643.9  3128.2   870.8
    9008.99  17636.9  3156.2   876.8
    9009.5  17604.9  3186.2   885.8
    9010.01  17607.9  3204.2   891.8
    9010.52  17594.9  3220.19   897.795
    9011.08  17577.9  3230.14   898.78
    9011.65  17591.9  3243.06   900.754
    9012.21  17591.8  3256.94   901.718
    9012.78  17545.8  3257.8   899.671
    9013.39  17536.7  3269.62   896.615
    9014.01  17488.7  3278.41   894.546
    9014.57  17489.6  3299.17   898.47
    9015.18  17485.6  3322.9   897.383
    9015.85  17487.5  3359.6   899.285
    9016.47  17452.4  3397.26   892.176
    9017.14  17439.3  3420.89   891.057
    9017.75  17450.2  3460.49   888.929
    9018.42  17433.1  3507.06   886.79
    9019.08  17424.9  3553.59   885.641
    9019.8  17415.8  3606.09   884.481
    9020.47  17409.7  3655.56   883.311
    9021.19  17408.5  3708   882.13
    9021.91  17387.4  3754.41   879.941
    9022.63  17388.2  3802.78   880.739
    9023.35  17355  3841.13   876.528
    9024.12  17394.8  3883.43   876.306
    9024.84  17392.7  3913.71   877.074
    9025.61  17370.5  3931.96   878.831
    9026.38  17408.2  3958.18   879.579
    9027.15  17377  3955.36   883.317
    9027.92  17358.8  3940.51   887.044
    9028.74  17376.6  3925.62   897.76
    9029.57  17371.3  3892.71   902.466
    9030.39  17363.1  3847.76   906.162
    9031.21  17357.8  3787.78   908.848
    9032.04  17380.6  3727.77   912.523
    9032.86  17375.3  3659.73   912.188
    9033.74  17362  3581.65   909.843
    9034.61  17372.7  3507.55   909.488
    9035.49  17344.4  3427.41   903.122
    9036.36  17327.1  3354.24   897.746
    9037.24  17305.8  3279.04   894.359
    9038.17  17244.4  3198.8   884.962
    9039.05  17050.1  3104.53   876.555
    9039.97  17268.8  3094.23   872.137
    9040.9  17465.4  3093.9   869.709
    9041.88  17420.1  3056.54   866.273
    9042.81  17481.7  3044.14   867.823
    9043.79  17495.3  3025.71   865.365
    9044.77  17516.9  3011.25   864.896
    9045.75  17494.5  2987.76   865.417
    9046.74  17483.1  2977.24   863.928
    9047.72  17500.7  2971.68   865.428
    9048.75  17493.3  2965.09   860.918
    9049.73  17520.9  2972.47   859.397
    9050.77  17501.4  2977.82   857.866
    9051.8  17475  2980.14   856.325
    9052.84  17501.5  3002.42   860.774
    9053.92  17534.1  3025.67   866.212
    9054.96  17560.6  3046.89   867.64
    9056.05  17539.1  3057.08   866.057
    9057.13  17544.6  3080.24   867.465
    9058.22  17569.1  3110.36   869.863
    9059.36  17585.6  3127.45   871.249
    9060.45  17582.1  3145.51   871.626
    9061.59  17603.6  3155.53   870.992
    9062.73  17603.1  3160.53   867.348
    9063.87  17604.5  3162.49   869.693
    9065.01  17640  3167.42   868.029
    9066.16  17659.4  3167.32   868.354
    9067.35  17653.9  3169.19   864.668
    9068.54  17662.3  3170.02   862.974
    9069.69  17685.7  3177.82   863.267
    9070.93  17693.1  3190.59   858.55
    9072.13  17716.5  3207.33   858.824
    9073.32  17707.9  3225.04   865.087
    9074.57  17714.3  3250.71   873.34
    9075.82  17744.7  3289.36   883.583
    9077.07  17754  3319.97   891.815
    9078.32  17760.4  3359.54   902.035
    9079.57  17791.8  3401.09   916.248
    9080.87  17832.1  3459.6   928.449
    9082.12  17847.4  3502.08   937.64
    9083.42  17852.8  3547.53   945.821
    9084.73  17868.1  3588.95   957.991
    9086.08  17899.4  3625.33   969.151
    9087.38  17909.7  3651.69   973.301
    9088.69  17935  3677.01   976.442
    9090.05  17953.3  3702.3   984.571
    9091.4  17963.5  3713.55   994.689
    9092.76  17997.8  3726.78  1002.8
    9094.12  18041.1  3730.97  1010.9
    9095.53  18021.3  3719.13  1013.98
    9096.94  18032.5  3710.26  1019.06
    9098.3  18062.8  3713.36  1020.13
    9099.71  18047  3695.42  1025.19
    9101.12  18081.2  3691.45  1025.23
    9102.59  18101.4  3679.45  1022.27
    9104  18135.6  3678.42  1016.29
    9105.47  18118.8  3661.36  1009.31
    9106.94  18141  3646.26  1002.32
    9108.41  18202.2  3652.13   998.311
    9109.87  18205.3  3649.97   994.296
    9111.34  18264.5  3660.78   994.27
    9112.86  18210.6  3648.55   991.235
    9114.33  18244.8  3655.3   993.189
    9115.85  18284.9  3668.01   996.131
    9117.38  18298  3668.69  1001.07
    9118.96  18333.1  3687.34  1003.99
    9120.48  18364.2  3696.95  1005.9
    9122  18350.3  3694.53  1000.8
    9123.58  18374.4  3701.09   995.695
    9125.16  18455.5  3712.61   991.579
    9126.74  18451.6  3710.09   984.448
    9128.32  18420.6  3697.55   973.31
    9129.95  18470.7  3706.97   971.161
    9131.53  18503.7  3706.36   973.002
    9133.17  18527.8  3714.72   971.832
    9134.8  18508.8  3717.04   973.652
    9136.44  18535.8  3724.34   981.463
    9138.07  18554.8  3725.6   987.261
    9139.76  18602.8  3741.83   995.05
    9141.4  18611.8  3750.03  1004.83
    9143.09  18575.8  3745.2  1013.6
    9144.78  18507.8  3742.33  1025.36
    9146.48  18614.8  3769.43  1039.1
    9148.17  18896.7  3831.5  1061.84
    9149.92  18867.7  3831.54  1077.57
    9151.61  18828.6  3831.54  1090.29
    9153.36  18905.6  3856.52  1109.99
    9155.11  18826.5  3848.46  1123.69
    9156.85  18810.4  3851.37  1135.37
    9158.6  18884.3  3876.25  1145.05
    9160.41  18892.2  3894.09  1146.71
    9162.16  19060.1  3937.9  1158.37
    9163.97  19159  3969.69  1155.02
    9165.77  19139.9  3990.43  1144.65
    9167.58  19119.7  4003.15  1137.27
    9169.44  19128.6  4029.83  1126.89
    9171.25  19157.5  4052.49  1125.49
    9173.11  19154.3  4079.11  1123.08
    9174.92  19197.1  4110.69  1127.67
    9176.78  19218  4138.25  1128.24
    9178.65  19247.8  4170.78  1133.8
    9180.57  19255.6  4194.27  1142.35
    9182.44  19289.4  4226.73  1149.9
    9184.36  19305.2  4255.16  1156.43
    9186.22  19353  4287.55  1162.95
    9188.15  19401.7  4318.92  1171.46
    9190.07  19434.5  4333.25  1177.96
    9191.99  19433.3  4342.55  1181.45
    9193.97  19482  4356.81  1185.93
    9195.9  19515.7  4372.05  1195.4
    9197.88  19548.5  4391.26  1200.86
    9199.86  19578.2  4407.43  1202.31
    9201.84  19596.9  4416.56  1201.75
    9203.82  19623.6  4435.67  1193.17
    9205.86  19637.3  4437.75  1187.59
    9207.85  19668  4446.79  1185
    9209.89  19721.7  4454.8  1190.4
    9211.93  19759.4  4453.78  1191.79
    9213.97  19772  4452.73  1198.16
    9216.01  19761.7  4446.64  1202.53
    9218.05  19780.3  4454.52  1208.88
    9220.15  19825  4475.37  1215.23
    9222.2  19852.6  4501.19  1227.57
    9224.3  19905.2  4533.98  1244.89
    9226.4  19931.8  4556.73  1264.21
    9228.5  19940.4  4576.46  1272.51
    9230.6  19967  4584.14  1287.8
    9232.76  19992.6  4601.8  1304.09
    9234.86  19851.2  4579.43  1302.36
    9237.02  19861.8  4592.02  1314.63
    9239.19  19920.3  4621.59  1322.88
    9241.35  19887.9  4633.12  1325.12
    9243.51  19930.4  4667.61  1336.36
    9245.73  19944  4687.08  1336.58
    9247.9  19983.5  4707.51  1342.79
    9250.12  20014  4720.91  1347.99
    9252.34  20033.5  4724.28  1355.18
    9254.56  20045  4726.62  1356.36
    9256.79  20092.5  4738.92  1357.53
    9259.01  20109  4741.2  1358.69
    9261.29  20151.5  4755.44  1361.84
    9263.52  20145  4759.64  1362.98
    9265.81  20154.4  4768.82  1362.11
    9268.09  20194.9  4784.97  1367.23
    9270.38  20224.3  4815.08  1369.34
    9272.66  20234.8  4836.16  1378.44
    9275.01  20250.2  4869.21  1386.53
    9277.3  20331.6  4927.23  1395.61
    9279.64  20326  4966.21  1401.67
    9281.99  20341.4  5005.17  1407.73
    9284.33  20361.8  5039.08  1410.78
    9286.68  20388.2  5056.97  1416.82
    9289.03  20425.6  5077.83  1422.84
    9291.44  20444.9  5094.65  1422.86
    9293.79  20458.3  5107.44  1430.86
    9296.2  20486.6  5122.2  1436.86
    9298.61  20499  5123.93  1446.84
    9301.02  20539.3  5144.63  1459.82
    9303.44  20587.6  5179.29  1469.78
    9305.85  20581.9  5211.92  1482.74
    9308.32  20591.3  5240.52  1492.68
    9310.74  20628.6  5282.09  1505.61
    9313.21  20657.8  5324.62  1519.54
    9315.69  20697.1  5376.13  1534.45
    9318.16  20702.4  5412.6  1545.35
    9320.69  20733.7  5443.04  1554.25
    9323.17  20769.9  5460.44  1561.13
    9325.65  20765.2  5468.82  1568
    9328.19  20777.4  5478.16  1570.86
    9330.73  20826.6  5494.47  1579.71
    9333.27  20826.9  5499.75  1589.55
    9335.81  20842.1  5511.99  1602.39
    9338.35  20890.3  5534.21  1620.2
    9340.95  20918.5  5558.39  1630.02
    9343.5  20956.7  5566.54  1640.81
    9346.1  21031.9  5606.66  1652.6
    9348.7  21047  5615.75  1656.38
    9351.31  21119.2  5632.8  1663.15
    9353.92  21148.3  5643.82  1664.91
    9356.53  21203.5  5684.81  1677.66
    9359.19  21245.6  5690.77  1686.4
    9361.81  21290.8  5718.69  1690.12
    9364.48  21313.9  5743.59  1695.84
    9367.15  21355  5781.45  1707.55
    9369.82  21408.1  5828.28  1719.25
    9372.49  21469.2  5875.07  1730.93
    9375.17  21527.3  5920.84  1744.61
    9377.9  21676.4  5991.57  1764.27
    9380.58  21911.4  6087.27  1791.93
    9383.32  21939.5  6131.94  1802.57
    9386.05  21977.5  6155.58  1809.21
    9388.79  21985.6  6178.18  1812.83
    9391.53  22003.6  6194.75  1823.45
    9394.28  22076.7  6230.3  1830.05
    9397.08  22090.7  6248.8  1842.64
    9399.83  22072.7  6264.28  1849.23
    9402.63  22110.7  6294.73  1864.8
    9405.44  22132.7  6318.14  1875.36
    9408.25  22148.7  6357.51  1887.91
    9411.06  22159.6  6379.86  1903.46
    9413.87  22224.6  6416.18  1922.99
    9416.68  22210.6  6427.46  1935.51
    9419.55  22211.5  6439.72  1944.02
    9422.37  22242.5  6485.94  1951.52
    9425.25  22246.4  6514.12  1958.01
    9428.12  22228.3  6520.28  1965.49
    9431  22284.2  6570.4  1984.96
    9433.88  22300.2  6586.49  1994.42
    9436.82  22300.1  6607.55  2003.87
    9439.71  22315.9  6634.58  2010.31
    9442.65  22356.8  6675.57  2016.74
    9445.59  22365.7  6710.54  2030.16
    9448.49  22364.6  6720.47  2036.57
    9451.43  22384.4  6740.37  2042.96
    9454.44  22375.3  6763.23  2052.35
    9457.4  22411.1  6802.07  2061.73
    9460.35  22412  6825.87  2055.09
    9463.36  22420.8  6858.64  2069.45
    9466.38  22429.6  6900.38  2118.8
    9469.34  22432.4  6923.09  2120.13
    9472.36  22452.2  6975.76  2130.46
    9475.38  22491  6998.4  2142.78
    9478.47  22504.8  7034.01  2158.08
    9481.49  22527.6  7079.59  2167.38
    9484.52  22520.3  7093.14  2178.66
    9487.61  22514.1  7130.65  2193.93
    9490.7  22542.8  7161.13  2201.2
    9493.73  22557.6  7190.58  2207.45
    9496.83  22573.3  7205.99  2211.69
    9499.98  22587  7227.38  2223.93
    9503.08  22599.7  7252.74  2239.15
    9506.18  22602.4  7285.06  2250.36
    9509.34  22604.1  7298.34  2258.56
    9512.44  22624.8  7317.61  2268.76
    9515.61  22644.5  7345.83  2278.94
    9518.77  22630.2  7360.02  2293.11
    9521.94  22622.8  7377.18  2310.27
    9525.11  22634.5  7389.31  2317.42
    9528.29  22616.1  7404.41  2325.56
    9531.52  22724.8  7461.47  2353.69
    9534.7  22693.4  7478.51  2363.81
    9537.94  22777  7521.5  2379.92
    9541.18  22740.6  7541.47  2387.01
    9544.42  22742.2  7581.41  2401.1
    9547.67  22756.8  7611.32  2417.18
    9550.91  22751.4  7643.19  2431.25
    9554.16  22757  7674.03  2442.31
    9557.42  22762.6  7703.84  2457.35
    9560.73  22771.1  7744.61  2472.39
    9563.98  22796.7  7784.36  2481.42
    9567.3  22802.2  7821.07  2500.44
    9570.62  22793.8  7844.75  2515.44
    9573.94  22800.3  7880.4  2528.44
    9577.27  22823.8  7912.01  2541.42
    9580.6  22823.3  7938.59  2555.4
    9583.99  22826.8  7981.15  2563.36
    9587.32  22832.3  8007.66  2575.32
    9590.71  22833.8  8036.15  2598.26
    9594.11  22831.3  8081.6  2610.2
    9597.45  22856.7  8116.03  2625.12
    9600.85  22822.2  8138.42  2635.03
    9604.31  22862.7  8178.78  2659.94
    9607.72  22841.1  8199.1  2671.83
    9611.12  22839.5  8232.39  2681.71
    9614.54  22872  8270.66  2699.58
    9618.01  22887.4  8294.89  2713.44
    9621.49  22877.8  8318.09  2726.3
    9624.9  22883.2  8343.25  2741.14
    9628.39  22877.6  8363.39  2748.97
    9631.87  22889  8387.49  2766.79
    9635.41  22897.3  8437.56  2782.6
    9638.9  22900.7  8470.6  2800.4