File: data/Cu/CuO_tenorite_13K_01.xdi
# XDI/1.0
# Column.1: energy eV
# Column.2: i0
# Column.3: itrans
# Column.4: irefer
# Beamline.name: SSRL 4-3
# Detector.I0: N2 15cm
# Detector.I1: Ar 30cm
# Detector.I2: Ar 15cm
# Element.edge: K
# Element.symbol: Cu
# Mono.d_spacing: 1.92009
# Mono.name: Si(220)
# Mono.notes: unfocused, detuned 50%,higher piezo, at E=9200eV
# Sample.formula: CuO
# Sample.name: CuO  copper oxide   tenorite
# Sample.prep: powder, mixed with B(OH)3
# Sample.reference: Cu metal foil (?)
# Sample.temperature: 13K
# Scan.start_time: 1996-07-30 09:34:32
# ///
#    Note: mono d_spacing is nominal!
#     exafs to K13
#     398  E XMU XMUR I0
#-------------
#   energy   i0   itrans  irefer
    8760.02  46739.3  214243  15327.4
    8770.01  46288.3  214445  15456.4
    8779.98  45826.3  214412  15593.4
    8790.02  45351.3  214778  15706.4
    8799.98  44898.3  214962  15821.4
    8810.02  44459.3  215165  15971.4
    8819.99  44000.3  215435  16064.4
    8829.98  43524.3  215881  16157.4
    8840  43108.3  216053  16296.4
    8849.99  42652.3  216323  16408.4
    8860.01  42182.3  216643  16524.4
    8870  41734.3  217071  16624.4
    8880.01  41320.3  217196  16732.4
    8890  40852.3  217468  16846.4
    8900.01  40448.3  218340  16979.4
    8910  40061.3  218657  17076.4
    8920.02  39598.3  219255  17138.4
    8930  39139.3  218825  17204.4
    8940.01  38714.3  219104  17301.4
    8950  38297.3  219582  17291.4
    8960  37869.3  219007  17178.4
    8960.76  37815.3  219288  17184.4
    8961.52  37748.3  219227  17149.4
    8962.28  37682.3  218594  17114.4
    8963.04  37645.3  219059  17107.4
    8963.8  37635.3  218578  17097.4
    8964.56  37574.3  218483  17040.4
    8965.32  37516.3  218577  17014.4
    8966.08  37570.3  218732  17028.4
    8966.84  37657.3  218317  17035.4
    8967.6  37615.3  218711  16998.4
    8968.31  37541.3  218297  16914.4
    8969.07  37465.3  218014  16856.4
    8969.83  37456.3  218372  16798.4
    8970.59  37425.3  218944  16738.4
    8971.35  37336.3  218252  16632.4
    8972.12  37320.3  218370  16546.4
    8972.88  37286.3  218060  16427.4
    8973.64  37238.3  217886  16306.4
    8974.4  37182.3  218112  16102.4
    8975.16  37154.3  218215  15850.4
    8975.92  37091.3  217722  15460.4
    8976.69  37112.3  217631  14899.4
    8977.45  37062.3  217397  13906.4
    8978.16  37010.3  217174  12466.4
    8978.92  36992.3  216921  10397.4
    8979.68  36947.3  216770  8514.41
    8980.45  36923.3  216816  7312.4
    8981.21  36851.3  216213  6684.4
    8981.97  36871.3  211302  6308.4
    8982.74  36836.3  193765  5760.4
    8983.5  36790.3  163739  4968.4
    8984.26  36702.3  133366  4126.4
    8984.98  36707.3  115010  3580.4
    8985.74  36638.3  106454  3256.4
    8986.5  36624.3  104957  3108.4
    8987.27  36596.3  103208  2950.4
    8988.03  36545.3  96776.4  2702.4
    8988.8  36544.3  86589.4  2406.4
    8989.56  36506.3  74853.4  2109.4
    8990.32  36426.3  63386.4  1857.4
    8991.04  36387.3  53846.4  1674.4
    8991.8  36358.3  45690.4  1536.4
    8992.57  36347.3  40606.4  1457.4
    8993.33  36309.3  37408.4  1413.4
    8994.1  36315.3  35191.4  1395.4
    8994.86  36238.3  33037.4  1381.4
    8995.63  36220.3  30806.4  1372.4
    8996.34  36175.3  28860.4  1361.4
    8997.11  36147.3  27477.4  1354.4
    8997.88  36091.3  27198.4  1352.4
    8998.64  36060.3  27769.4  1358.4
    8999.41  35999.3  28675.4  1362.4
    9000.17  35993.3  29945.4  1363.4
    9000.89  35969.3  31538.4  1363.4
    9001.66  35930.3  33691.4  1370.4
    9002.42  35884.3  36009.4  1377.4
    9003.19  35847.3  38067.4  1394.4
    9003.96  35853.3  39831.4  1415.4
    9004.67  35808.3  41183.4  1439.4
    9005.44  35790.3  42572.4  1467.4
    9006.21  35736.3  43761.4  1489.4
    9006.98  35738.3  44675.4  1509.4
    9007.74  35717.3  45107.4  1527.4
    9008.46  35662.3  45019.4  1537.4
    9009.23  35652.3  44688.4  1543.4
    9010  35566.3  44139.4  1542.4
    9010.56  35557.3  43849.4  1543.4
    9011.07  35533.3  43618.4  1541.39
    9011.64  35513.3  43456.3  1540.38
    9012.2  35467.3  43380.3  1535.36
    9012.81  35494.2  43481.2  1537.33
    9013.38  35447.2  43548.1  1536.3
    9013.99  35413.2  43673  1530.27
    9014.61  35396.2  43847.9  1528.23
    9015.22  35343.1  43996.7  1524.18
    9015.84  35341.1  44233.6  1523.13
    9016.45  35315  44456.4  1518.07
    9017.12  35300  44776.2  1512.01
    9017.79  35264.9  45218  1504.94
    9018.45  35248.9  45822.8  1501.87
    9019.12  35263.8  46650.5  1501.79
    9019.79  35220.7  47555.3  1501.71
    9020.51  35208.7  48706  1503.62
    9021.18  35200.6  49872.7  1505.52
    9021.89  35196.5  51087.4  1510.42
    9022.61  35153.4  52176  1511.32
    9023.33  35110.3  53092.7  1511.21
    9024.1  35093.2  53933.3  1510.09
    9024.82  35081.1  54603  1509.97
    9025.59  35058  55202.6  1514.84
    9026.36  35041.9  55675.2  1522.71
    9027.14  34978.8  55907.7  1526.57
    9027.96  35011.7  56020.3  1537.43
    9028.73  35007.6  55809.8  1548.28
    9029.55  35003.4  55338.4  1554.12
    9030.38  35010.3  54659.9  1565.97
    9031.2  34931.2  53706.3  1564.8
    9032.02  34969  52821.8  1573.63
    9032.9  34942.9  51706.3  1571.46
    9033.72  34871.8  50623.7  1566.27
    9034.6  34846.6  49546.1  1562.09
    9035.48  34846.4  48519.5  1551.89
    9036.35  34822.3  47487.9  1545.7
    9037.28  34783.1  46361.3  1535.49
    9038.16  34653  45164.7  1521.29
    9039.08  34217.8  43605  1508.07
    9040.01  34377.6  42823.3  1491.85
    9040.94  34899.4  42583.6  1491.63
    9041.87  34756.2  41727.9  1479.4
    9042.8  34838  41274.2  1478.16
    9043.78  34900.8  40883.4  1468.92
    9044.76  34924.6  40480.7  1462.68
    9045.74  34851.4  39998.9  1458.42
    9046.72  34846.2  39586.1  1456.17
    9047.7  34847  39222.3  1446.91
    9048.74  34797.8  38858.4  1439.64
    9049.77  34055.6  37824.6  1389.36
    9050.75  33910.4  37596.7  1376.09
    9051.79  33819.1  37570.9  1370.8
    9052.88  33715.9  37688  1367.51
    9053.91  33592.6  37899  1364.22
    9055  33508.4  38239.1  1365.92
    9056.03  33432.2  38595.2  1365.61
    9057.12  33354.9  38960.2  1363.3
    9058.26  33316.6  39359.2  1363.98
    9059.35  33281.4  39796.2  1361.66
    9060.44  33242.1  40162.2  1358.34
    9061.58  33170.8  40514.2  1354
    9062.72  33173.6  40939.1  1357.67
    9063.86  33143.3  41276.1  1357.32
    9065  33095  41562  1355.97
    9066.19  33017.7  41725.9  1353.62
    9067.33  32993.4  41976.8  1351.26
    9068.53  32946.1  42190.6  1345.89
    9069.72  32959.8  42494.5  1344.52
    9070.92  32919.5  42705.3  1342.15
    9072.11  32902.2  42927.2  1340.77
    9073.36  32894.9  43151  1346.38
    9074.56  32906.6  43332.7  1356.99
    9075.81  32875.3  43452.5  1363.59
    9077.05  32823.9  43529.3  1368.19
    9078.3  32843.6  43669  1378.78
    9079.55  32870.3  43801.7  1398.36
    9080.85  32846.9  43833.4  1410.94
    9082.16  32824.6  43837.1  1415.52
    9083.46  32840.2  43923.8  1426.09
    9084.76  32786.9  43967.4  1431.65
    9086.07  32775.5  44093  1440.21
    9087.37  32831.1  44304.7  1449.77
    9088.73  32813.8  44395.3  1451.32
    9090.08  32826.4  44465.8  1456.86
    9091.39  32833  44498.4  1460.4
    9092.8  32826.7  44520  1469.93
    9094.16  32817.3  44618.5  1472.46
    9095.51  32794.9  44718  1477.98
    9096.93  32833.5  44923.5  1485.49
    9098.34  32799.1  44980  1491
    9099.75  32782.7  45073.5  1496.51
    9101.16  32758.3  45162.9  1493.01
    9102.58  32763.9  45310.3  1492.5
    9104.04  32759.5  45466.8  1488.99
    9105.46  32812  45653.2  1484.47
    9106.92  32776.6  45678.5  1477.95
    9108.39  32802.2  45762.9  1473.42
    9109.86  32831.7  45892.3  1467.89
    9111.38  32783.3  45972.6  1464.35
    9112.85  32813.9  46208.9  1462.81
    9114.37  32750.4  46297.2  1463.26
    9115.9  32816  46497.5  1470.71
    9117.42  32802.5  46512.8  1470.15
    9118.94  32820.1  46525  1471.58
    9120.47  32816.6  46453.2  1470.01
    9122.04  32787.1  46218.5  1459.43
    9123.57  32812.6  45969.6  1449.85
    9125.15  32817.2  45575.8  1433.27
    9126.73  32804.7  45133  1416.67
    9128.36  32825.2  44753.1  1404.08
    9129.94  32842.7  44441.3  1392.47
    9131.57  32819.2  44134.4  1387.86
    9133.15  32820.7  43970.5  1388.25
    9134.79  32793.2  43842.6  1389.63
    9136.42  32777.7  43808.6  1392.01
    9138.11  32789.2  43866.7  1397.38
    9139.75  32795.7  43961.7  1405.74
    9141.44  32766.2  44033.7  1412.1
    9143.08  32728.6  44071.7  1425.45
    9144.77  32431.1  43720.7  1430.8
    9146.46  32471.6  43920.7  1451.14
    9148.21  32880  44533.6  1471.48
    9149.9  32912.5  44591.5  1486.81
    9151.65  32918.9  44726.4  1506.14
    9153.34  32914.4  44906.3  1522.46
    9155.09  32763.8  44889.2  1540.78
    9156.84  32701.3  45094.1  1555.09
    9158.65  32693.7  45397.9  1564.39
    9160.4  32727.1  45773.8  1573.69
    9162.2  32997.6  46577.6  1577.98
    9164  33105  47334.4  1575.27
    9165.76  33022.4  47803.2  1566.56
    9167.62  32993.8  48401.9  1562.83
    9169.43  33009.2  49068.7  1558.11
    9171.23  32964.6  49626.4  1552.37
    9173.1  32989  50231.1  1555.64
    9174.96  32966.4  50586.8  1557.89
    9176.77  32926.8  50673.5  1559.14
    9178.69  32950.2  50605.1  1559.39
    9180.56  32966.6  50304.8  1558.63
    9182.42  32956  49864.4  1556.86
    9184.34  32946.3  49390  1558.09
    9186.26  32925.7  48932.6  1550.32
    9188.13  32932.1  48644.2  1546.53
    9190.11  32952.4  48557.8  1549.75
    9192.03  32937.8  48626.3  1554.95
    9193.96  32938.1  48860.8  1560.16
    9195.94  32943.5  49194.3  1567.35
    9197.86  32915.8  49488.8  1573.54
    9199.84  32903.2  49788.3  1573.73
    9201.83  32895.5  50073.8  1570.91
    9203.86  32919.8  50415.2  1566.09
    9205.85  32906.1  50738.6  1560.26
    9207.83  32893.5  51125.1  1558.42
    9209.87  32916.8  51569.4  1562.58
    9211.91  32938.1  51895.8  1566.73
    9213.95  32889.4  51924.2  1568.88
    9215.99  32882.7  51818.5  1573.02
    9218.04  32905  51628.9  1576.16
    9220.14  32893.3  51283.2  1581.29
    9222.18  32842.6  50843.5  1585.42
    9224.28  32866.9  50507.7  1592.54
    9226.38  32863.2  50264  1602.66
    9228.48  32844.4  50225.2  1616.77
    9230.64  32819.7  50428.5  1631.87
    9232.75  32841  50867.7  1649.97
    9234.91  32860.2  51418.9  1666.06
    9237.01  32837.5  51895  1680.15
    9239.17  32825.7  52329.2  1689.23
    9241.33  32791  52590.3  1692.31
    9243.55  32818.2  52761.5  1696.38
    9245.72  32785.5  52694.6  1694.45
    9247.88  32830.7  52678.7  1698.51
    9250.1  32808  52542.7  1698.57
    9252.33  32781.2  52451.8  1696.62
    9254.55  32797.4  52473.8  1698.67
    9256.77  32761.6  52436.9  1697.71
    9259  32778.8  52503.9  1700.74
    9261.28  32699  52437.9  1696.77
    9263.51  32758.3  52616.8  1698.79
    9265.79  32745.5  52794.8  1698.81
    9268.08  32737.7  53111.7  1699.82
    9270.36  32733.8  53559.7  1709.83
    9272.65  32726  54092.6  1711.83
    9274.99  32710.2  54648.5  1720.83
    9277.28  32724.4  55195.3  1727.82
    9279.62  32685.6  55545.2  1736.81
    9281.97  32688.7  55770  1738.79
    9284.32  32692.9  55819.9  1738.76
    9286.67  32686.1  55741.7  1742.73
    9289.02  32670.2  55631.4  1742.69
    9291.43  32625.4  55527.2  1739.65
    9293.78  32631.5  55573  1744.61
    9296.19  32625.7  55642.7  1747.55
    9298.6  32599.8  55730.4  1747.5
    9301.01  32585  55859.1  1752.43
    9303.42  32554.1  55932.8  1764.36
    9305.89  32509.2  56001.5  1772.29
    9308.31  32517.3  56190.2  1777.21
    9310.78  32517.5  56468.8  1792.13
    9313.25  32473.6  56754.4  1804.04
    9315.67  32469.7  57113  1821.94
    9318.2  32435.8  57416.6  1828.84
    9320.68  32450.9  57718.2  1841.74
    9323.16  32415  57809.8  1843.62
    9325.69  32370.1  57777.3  1845.51
    9328.18  32367.2  57793.8  1851.38
    9330.71  32389.2  57837.3  1860.26
    9333.25  32343.3  57789.8  1861.12
    9335.8  32301.4  57788.3  1866.99
    9338.39  32301.5  57958.7  1878.84
    9340.94  32320.5  58257.2  1892.69
    9343.54  32281.6  58564.6  1898.54
    9346.09  32230.6  58965  1906.38
    9348.69  32234.7  59557.4  1914.21
    9351.3  32245.7  60206.8  1928.04
    9353.9  32224.8  60705.1  1936.86
    9356.57  32200.8  61047.4  1945.68
    9359.18  32193.9  61218.8  1952.49
    9361.84  32195.9  61228.1  1960.3
    9364.46  32150.9  61001.4  1957.1
    9367.13  32166.9  60766.6  1957.9
    9369.8  32149  60456.9  1951.69
    9372.48  32153  60222.1  1948.47
    9375.21  32115  60002.3  1953.26
    9377.89  32149  59995.5  1953.03
    9380.62  32110  59990.7  1952.8
    9383.3  32142  60167.9  1955.56
    9386.04  32095  60236.1  1963.32
    9388.78  32096  60410.2  1970.08
    9391.52  32106.9  60626.3  1975.82
    9394.26  32095.9  60864.4  1986.56
    9397.06  32125.9  61294.5  1996.3
    9399.81  32041.9  61569.6  2000.03
    9402.62  32071.8  62094.6  2018.76
    9405.42  32095.8  62606.7  2031.48
    9408.23  32120.7  63065.7  2048.2
    9411.04  32098.7  63329.7  2062.91
    9413.85  32118.6  63577.7  2076.61
    9416.72  32111.6  63682.6  2082.31
    9419.54  32148.5  63857.6  2092
    9422.41  32172.4  64053.5  2102.69
    9425.29  32233.4  64438.4  2119.37
    9428.11  32268.3  64872.3  2136.05
    9431.04  32211.2  65233.2  2146.72
    9433.92  32229.1  65780.1  2160.39
    9436.81  32299  66369.9  2180.05
    9439.75  32265  66677.8  2184.71
    9442.64  32299.9  67006.6  2191.36
    9445.58  32269.8  67169.4  2192
    9448.53  32299.6  67402.2  2205.64
    9451.48  32335.5  67651  2216.28
    9454.43  32307.4  67810.7  2229.91
    9457.38  32288.3  67987.4  2231.53
    9460.39  32271.2  68142.2  2216.15
    9463.35  32275.1  68355.9  2252.76
    9466.36  32233.9  68380.5  2278.37
    9469.38  32231.8  68345.2  2275.97
    9472.4  32232.6  68268.9  2275.56
    9475.43  32174.5  68073.5  2274.15
    9478.45  32172.3  68051.1  2275.74
    9481.48  32150.2  68049.7  2281.32
    9484.56  32100  68113.3  2288.89
    9487.59  32065.9  68328.9  2295.46
    9490.68  32070.7  68757.4  2306.03
    9493.77  31997.5  69076.9  2314.59
    9496.87  32001.4  69572.5  2330.14
    9499.96  31999.2  69971  2340.69
    9503.06  31968  70204.4  2348.23
    9506.16  31969.8  70382.9  2353.77
    9509.32  31917.6  70362.4  2359.3
    9512.48  31932.4  70488.8  2370.82
    9515.59  31907.2  70597.2  2379.34
    9518.76  31852  70744.6  2389.86
    9521.93  31778.8  71002  2405.37
    9525.1  31775.6  71531.4  2412.87
    9528.33  31801.3  72163.7  2442.37
    9531.5  31991.1  73123  2470.87
    9534.68  31869.9  73230.3  2482.35
    9537.92  31913.7  73590.6  2490.83
    9541.16  31936.4  73809.9  2500.31
    9544.4  31936.2  73926.2  2508.78
    9547.65  31860.9  73861.4  2518.25
    9550.9  31819.7  73906.7  2525.71
    9554.15  31826.4  74104.9  2540.17
    9557.46  31764.2  74168.1  2542.62
    9560.71  31697.9  74238.3  2547.06
    9564.03  31671.6  74442.4  2557.5
    9567.29  31666.4  74676.6  2569.94
    9570.61  31625.1  74787.7  2579.37
    9573.93  31555.8  74812.8  2585.79
    9577.25  31500.5  74817.9  2594.21
    9580.64  31651.2  75270  2618.62
    9583.97  31600.9  75240.1  2626.02
    9587.36  31552.6  75305.1  2635.43
    9590.69  31533.3  75549.1  2649.82
    9594.09  31447  75764.1  2657.21
    9597.49  31428.7  76226.2  2669.6
    9600.89  31382.4  76634.1  2674.98
    9604.3  31296.1  76891.1  2685.35
    9607.7  31251.7  77142  2699.72
    9611.11  31177.4  77221  2705.08
    9614.58  31126.1  77267.9  2733.44
    9617.99  31009.7  77193.8  2736.8
    9621.47  30968.4  77354.7  2746.14
    9624.95  30937  77601.5  2762.49
    9628.43  30834.7  77755.4  2766.82
    9631.91  30807.3  78105.2  2784.15
    9635.4  30761  78461  2798.48
    9638.89  30682.6  78695.8  2798.8