File: data/Cu/CuS_covellite_13K_01.xdi
# XDI/1.0
# Column.1: energy eV
# Column.2: i0
# Column.3: itrans
# Column.4: irefer
# Beamline.name: SSRL 4-3
# Detector.I0: N2 15cm
# Detector.I1: Ar 30cm
# Detector.I2: Ar 15cm
# Element.edge: K
# Element.symbol: Cu
# Mono.d_spacing: 1.92009
# Mono.name: Si(220)
# Mono.notes: unfocused, detuned 50%,higher piezo, at E=9010eV
# Sample.formula: CuS
# Sample.name: CuS  copper sulfide  covellite
# Sample.prep: powder, mixed with B(OH)3
# Sample.reference: Cu metal foil
# Sample.temperature: 13K
# Scan.start_time: 1996-07-25 15:02:33
# ///
#    Note: mono d_spacing is nominal!
#     exafs to K13
#     432  E XMU XMUR I0
#-------------
#   energy   i0   itrans  irefer
    8759.98  29774.9  24187.2  14099.8
    8770.02  29448.9  24230.2  14184.8
    8779.99  29061.9  24252.2  14242.8
    8789.98  28735.9  24296.2  14321.8
    8800  28347.9  24314.2  14375.8
    8809.99  28016.9  24364.2  14438.8
    8820  27641.9  24372.2  14500.8
    8830  27304.9  24406.2  14571.8
    8840.01  26975.9  24415.2  14636.8
    8850  26613.9  24425.2  14680.8
    8860.02  26253.9  24435.2  14730.8
    8870.01  25968.9  24454.2  14814.8
    8879.98  25624.9  24475.2  14856.8
    8890.01  25290.9  24487.2  14904.8
    8899.98  24963.9  24488.2  14979.8
    8910.02  24640.9  24490.2  15008.8
    8919.98  24322.9  24486.2  15042.8
    8930.02  23965.9  24484.2  15049.8
    8940.02  23687.9  24458.2  15113.8
    8950.01  23369.9  24443.2  15088.8
    8960.02  23010.9  24445.2  15014.8
    8960.52  22997.9  24406.2  15014.8
    8960.98  22988.9  24376.2  15014.8
    8961.48  22994.9  24354.2  15018.8
    8961.99  22940.9  24379.2  14984.8
    8962.5  22945.9  24353.2  14999.8
    8963  22894.9  24354.2  14975.8
    8963.51  22892.9  24336.2  14972.8
    8964.02  22884.9  24318.2  14962.8
    8964.52  22872.9  24305.2  14961.8
    8964.98  22828.9  24285.2  14924.8
    8965.49  22787.9  24313.2  14881.8
    8965.99  22838.9  24326.2  14921.8
    8966.5  22889.9  24344.2  14931.8
    8967.01  22883.9  24336.2  14925.8
    8967.51  22877.9  24283.2  14924.8
    8968.02  22829.9  24317.2  14880.8
    8968.48  22831.9  24295.2  14872.8
    8968.98  22809.9  24298.2  14859.8
    8969.49  22770.9  24296.2  14814.8
    8970  22756.9  24285.2  14776.8
    8970.51  22754.9  24276.2  14759.8
    8971.01  22713.9  24245.2  14714.8
    8971.52  22694.9  24271.2  14676.8
    8971.98  22671.9  24264.2  14635.8
    8972.48  22645.9  24216.2  14573.8
    8972.99  22582.9  24261.2  14498.8
    8973.5  22614.9  24227.2  14471.8
    8974.01  22563.9  24199.2  14370.8
    8974.51  22552.9  24190.2  14275.8
    8975.02  22529.9  24199.2  14159.8
    8975.48  22507.9  24196.2  14038.8
    8975.99  22513.9  24181.2  13871.8
    8976.5  22482.9  24078.2  13622.8
    8977  22484.9  24075.2  13277.8
    8977.51  22453.9  23976.2  12719.8
    8978.02  22464.9  23880.2  11928.8
    8978.48  22408.9  23792.2  10877.8
    8978.99  22402.9  23714.2  9607.8
    8979.5  22404.9  23609.2  8402.8
    8980  22404.9  23359.2  7434.8
    8980.51  22382.9  23146.2  6690.8
    8981.02  22352.9  22730.2  6203.8
    8981.48  22332.9  22287.2  5938.8
    8981.99  22302.9  21545.2  5722.8
    8982.5  22290.9  20796.2  5568.8
    8983  22239.9  20035.2  5417.8
    8983.51  22260.9  19383.2  5243.8
    8984.02  22240.9  18738.2  5014.8
    8984.48  22226.9  18155.2  4781.8
    8984.99  22168.9  17508.2  4505.8
    8985.5  22172.9  16985.2  4276.8
    8986.01  22172.9  16626.2  4079.8
    8986.52  22151.9  16466.2  3928.8
    8986.98  22123.9  16451.2  3814.8
    8987.49  22100.9  16517.2  3690.8
    8987.99  22095.9  16609.2  3555.8
    8988.5  22086.9  16663.2  3403.8
    8989.01  22047.9  16643.2  3234.8
    8989.52  22025.9  16575.2  3054.8
    8989.98  21992.9  16474.2  2882.8
    8990.49  21982.9  16382.2  2713.8
    8991  21964.9  16291.2  2562.8
    8991.51  21961.9  16216.2  2428.8
    8992.02  21972.9  16147.2  2323.8
    8992.48  21929.9  16041.2  2243.8
    8992.99  21922.9  15932.2  2179.8
    8993.5  21887.9  15791.2  2135.8
    8994.01  21893.9  15687.2  2119.8
    8994.52  21902.9  15588.2  2125.8
    8994.98  21888.9  15500.2  2139.8
    8995.49  21853.9  15410.2  2165.8
    8996  21837.9  15363.2  2200.8
    8996.51  21806.9  15322.2  2238.8
    8997.02  21832.9  15330.2  2277.8
    8997.48  21804.9  15300.2  2298.8
    8997.99  21769.9  15251.2  2314.8
    8998.5  21750.9  15209.2  2318.8
    8999.01  21750.9  15173.2  2309.8
    8999.52  21726.9  15131.2  2284.8
    8999.98  21703.9  15092.2  2252.8
    9000.49  21662.9  15059.2  2201.8
    9001.01  21681.9  15075.2  2155.8
    9001.52  21647.9  15060.2  2106.8
    9001.98  21612.9  15045.2  2067.8
    9002.49  21623.9  15065.2  2042.8
    9003  21617.9  15070.2  2028.8
    9003.51  21581.9  15040.2  2029.8
    9004.02  21533.9  15006.2  2042.8
    9004.48  21524.9  14997.2  2070.8
    9004.99  21515.9  14988.2  2106.8
    9005.51  21536.9  14996.2  2143.8
    9006.02  21533.9  14989.2  2181.8
    9006.48  21471.9  14944.2  2202.8
    9006.99  21458.9  14928.2  2230.8
    9007.5  21442.9  14913.2  2256.8
    9008.01  21432.9  14900.2  2280.8
    9008.52  21404.9  14876.2  2302.8
    9008.99  21399.9  14869.2  2323.8
    9009.5  21403.9  14870.2  2345.8
    9010.01  21351.9  14828.2  2364.8
    9010.52  21334.9  14822.2  2379.79
    9011.08  21299.9  14806.1  2389.76
    9011.65  21284.8  14812.9  2392.71
    9012.21  21316.8  14861.7  2398.63
    9012.78  21273.7  14870.4  2392.54
    9013.39  21289.6  14938  2393.43
    9014.01  21281.5  15001.6  2393.29
    9014.57  21269.4  15069.1  2388.14
    9015.18  21278.2  15159.6  2382.96
    9015.85  21269.1  15250  2370.77
    9016.47  21245.9  15312.3  2353.55
    9017.14  21274.7  15410.6  2340.32
    9017.75  21280.5  15479.8  2320.06
    9018.42  21266.2  15532.9  2296.78
    9019.08  21283  15603  2275.48
    9019.8  21298.7  15680  2254.16
    9020.47  21261.4  15711.9  2226.82
    9021.19  21281.2  15777.8  2206.46
    9021.91  21279.8  15825.6  2186.08
    9022.63  21299.5  15881.4  2168.68
    9023.35  21293.2  15916.1  2146.25
    9024.12  21304.8  15929.7  2128.81
    9024.84  21382.4  15982.2  2127.35
    9025.61  21351  15939.7  2118.86
    9026.38  21349.6  15908.1  2125.36
    9027.15  21387.2  15902.5  2138.83
    9027.92  21424.7  15887.8  2163.29
    9028.74  21419.2  15841  2191.72
    9029.57  21478.8  15843.2  2228.13
    9030.39  21448.3  15798.3  2261.53
    9031.21  21482.7  15805.4  2298.9
    9032.04  21528.2  15827.3  2336.25
    9032.86  21536.7  15831.3  2368.58
    9033.74  21575.1  15866.1  2400.89
    9034.61  21592.5  15887.9  2422.17
    9035.49  21609.9  15908.6  2439.44
    9036.36  21604.3  15925.3  2446.69
    9037.24  21635.7  15946.9  2451.92
    9038.17  21581  15910.4  2447.13
    9039.05  21364.3  15746.9  2426.31
    9039.97  21659.6  15935.3  2438.48
    9040.9  21964.9  16132.6  2447.62
    9041.88  21898.2  16051.9  2432.74
    9042.81  22002.5  16083.1  2438.85
    9043.79  22134.7  16131.2  2449.93
    9044.77  22188  16119.3  2454.99
    9045.75  22177.2  16054.3  2457.03
    9046.74  22280.4  16075.3  2464.06
    9047.72  22320.5  16047.2  2456.05
    9048.75  22360.7  16026  2440.04
    9049.73  22417.8  16016.7  2428.99
    9050.77  22453  15996.4  2412.93
    9051.8  22491.1  15996.1  2413.85
    9052.84  22536.2  16018.6  2415.75
    9053.92  22647.2  16106.1  2429.63
    9054.96  22682.3  16154.6  2437.48
    9056.05  22730.3  16226  2438.32
    9057.13  22824.4  16337.3  2443.13
    9058.22  22869.4  16417.5  2436.92
    9059.36  22935.4  16505.7  2428.7
    9060.45  23011.3  16595.8  2425.45
    9061.59  23059.3  16660.9  2422.18
    9062.73  23128.2  16741.9  2421.9
    9063.87  23181.2  16806.8  2420.59
    9065.01  23247.1  16896.6  2425.26
    9066.16  23321  17003.4  2424.91
    9067.35  23381.8  17117.2  2421.54
    9068.54  23444.7  17243.8  2421.15
    9069.69  23512.5  17367.4  2417.73
    9070.93  23617.3  17525  2424.3
    9072.13  23655.1  17623.5  2426.85
    9073.32  23750.9  17756.9  2446.37
    9074.57  23854.7  17896.2  2477.88
    9075.82  23875.5  17973.5  2507.37
    9077.07  23962.2  18088.7  2554.83
    9078.32  24016.9  18181.9  2605.27
    9079.57  24134.6  18327  2658.7
    9080.87  24206.3  18435  2709.1
    9082.12  24251  18519  2752.48
    9083.42  24307.6  18616.9  2795.84
    9084.73  24402.2  18745.7  2844.18
    9086.08  24489.9  18850.5  2886.5
    9087.38  24577.5  18956.2  2919.8
    9088.69  24673.1  19058.8  2950.08
    9090.05  24760.6  19144.4  2979.34
    9091.4  24791.2  19187.9  3006.58
    9092.76  24903.7  19272.4  3056.79
    9094.12  24992.2  19324.7  3100.99
    9095.53  25107.7  19389.1  3148.17
    9096.94  25172.2  19413.3  3182.32
    9098.3  25263.7  19455.5  3206.46
    9099.71  25352.1  19490.6  3217.57
    9101.12  25450.5  19532.7  3220.66
    9102.59  25531  19568.7  3202.74
    9104  25620.3  19611.6  3183.79
    9105.47  25727.7  19681.5  3155.82
    9106.94  25851.1  19750.3  3136.83
    9108.41  25910.4  19773.1  3107.82
    9109.87  26026.8  19832.7  3092.79
    9111.34  26077.1  19856.4  3083.74
    9112.86  26175.4  19915.9  3080.67
    9114.33  26302.7  20025.4  3087.58
    9115.85  26347.9  20085.8  3101.46
    9117.38  26499.2  20241.2  3132.33
    9118.96  26564.4  20348.5  3148.18
    9120.48  26706.6  20503.7  3159
    9122  26773.8  20599.9  3153.81
    9123.58  26873  20722  3133.59
    9125.16  26971.1  20851  3101.36
    9126.74  27067.3  20983  3059.1
    9128.32  27159.4  21111.9  3026.82
    9129.95  27290.5  21266.7  3012.52
    9131.53  27376.6  21377.5  3018.2
    9133.17  27484.7  21486.2  3033.87
    9134.8  27578.7  21585.9  3061.5
    9136.44  27621.8  21636.5  3097.12
    9138.07  27757.8  21772  3132.72
    9139.76  27850.8  21874.5  3175.3
    9141.4  27947.8  21972.9  3233.86
    9143.09  27933.8  21986.2  3284.4
    9144.78  27805.7  21917.5  3341.91
    9146.48  28029.7  22123.7  3437.4
    9148.17  28530.6  22557.8  3563.88
    9149.92  28558.5  22653.9  3650.33
    9151.61  28653.4  22803.9  3751.77
    9153.36  28801.2  22978.8  3866.18
    9155.11  28726.1  22972.7  3948.58
    9156.85  28804.9  23091.5  4030.95
    9158.6  28948.7  23246.3  4095.3
    9160.41  29096.6  23406  4126.63
    9162.16  29377.3  23669.6  4136.94
    9163.97  29612.1  23882.2  4117.23
    9165.77  29682.9  24003.7  4071.5
    9167.58  29734.6  24127.1  4024.75
    9169.44  29815.3  24301.5  3979.97
    9171.25  29948  24513.8  3962.18
    9173.11  30034.7  24673  3949.37
    9174.92  30118.4  24817.2  3955.53
    9176.78  30281  24989.3  3978.68
    9178.65  30358.7  25078.4  4000.8
    9180.57  30423.3  25126.3  4019.91
    9182.44  30527.9  25189.3  4043.99
    9184.36  30650.4  25261.1  4071.06
    9186.22  30773  25339.9  4101.1
    9188.15  30887.6  25419.6  4122.12
    9190.07  30983.1  25501.3  4147.12
    9191.99  31090.6  25612.9  4181.1
    9193.97  31169.1  25808.4  4216.06
    9195.9  31282.6  25923.9  4255
    9197.88  31405.1  25943.3  4279.92
    9199.86  31509.5  26052.7  4282.82
    9201.84  31579.9  26121.9  4252.69
    9203.82  31699.3  26240.1  4220.55
    9205.86  31834.7  26361.3  4192.39
    9207.85  31918.1  26445.4  4181.2
    9209.89  32033.5  26585.4  4193.99
    9211.93  32147.8  26730.4  4227.77
    9213.97  32188.2  26833.3  4251.52
    9216.01  32368.5  27076.1  4304.25
    9218.05  32487.8  27265.9  4358.97
    9220.15  32582  27460.6  4421.66
    9222.2  32666.3  27631.2  4503.33
    9224.3  32854.5  27881.8  4600.98
    9226.4  32958.8  28040.3  4694.61
    9228.5  33044  28173.7  4782.22
    9230.6  33132.2  28297.1  4875.81
    9232.76  33249.3  28468.4  4964.38
    9234.86  33347.5  28588.7  5034.92
    9237.02  33431.6  28737.8  5102.45
    9239.19  33542.8  28907  5147.96
    9241.35  33647.9  29067  5184.44
    9243.51  33721  29204  5200.91
    9245.73  33851  29363  5220.35
    9247.9  33983.1  29502.8  5243.78
    9250.12  34027.1  29576.6  5263.18
    9252.34  34148.2  29702.4  5288.56
    9254.56  34307.2  29863  5321.93
    9256.79  34380.2  29946.6  5331.26
    9259.01  34533.1  30113.2  5362.59
    9261.29  34609.1  30219.7  5383.89
    9263.52  34695  30357.1  5395.17
    9265.81  34814.9  30544.4  5402.43
    9268.09  34941.8  30762.7  5428.66
    9270.38  35019.7  30932  5446.88
    9272.66  35134.6  31150.1  5472.08
    9275.01  35254.5  31372.2  5502.25
    9277.3  35341.3  31541.3  5535.41
    9279.64  35440.1  31700.2  5557.55
    9281.99  35523.9  31851.1  5582.66
    9284.33  35622.7  31981  5607.76
    9286.68  35766.5  32155.7  5650.83
    9289.03  35842.2  32255.5  5671.88
    9291.44  35955.9  32408.1  5701.92
    9293.79  36042.7  32544.7  5725.92
    9296.2  36147.4  32694.2  5754.92
    9298.61  36263.1  32831.7  5802.89
    9301.02  36356.7  32962.1  5847.84
    9303.44  36419.4  33070.4  5898.76
    9305.85  36489  33184.6  5951.68
    9308.32  36605.6  33334.8  6025.56
    9310.74  36724.2  33509  6092.43
    9313.21  36803.8  33632  6170.27
    9315.69  36861.4  33737.1  6229.11
    9318.16  36968.9  33889  6292.91
    9320.69  37124.4  34069.9  6355.7
    9323.17  37173  34179.7  6390.46
    9325.65  37264.4  34324.4  6434.2
    9328.19  37360.9  34487.1  6473.93
    9330.73  37458.4  34685.7  6529.63
    9333.27  37535.8  34863.3  6594.31
    9335.81  37641.3  35077.8  6665.97
    9338.35  37727.7  35268.2  6747.61
    9340.95  37784.1  35430.6  6824.23
    9343.5  37904.5  35636.9  6897.83
    9346.1  37998.8  35824.1  6939.41
    9348.7  38089.2  36002.3  6973.97
    9351.31  38133.5  36125.4  6991.51
    9353.92  38261.8  36319.4  7041.02
    9356.53  38378.1  36494.4  7092.52
    9359.19  38451.4  36640.3  7121
    9361.81  38820.6  37066.2  7204.45
    9364.48  38955.9  37265  7256.89
    9367.15  39047.1  37424.7  7293.3
    9369.82  39123.3  37563.4  7329.69
    9372.49  39184.5  37696.9  7359.07
    9375.17  39310.7  37895.5  7405.42
    9377.9  39349.8  38011.9  7431.74
    9380.58  39448  38181.3  7466.06
    9383.32  39552.1  38389.7  7501.35
    9386.05  39629.2  38560  7538.61
    9388.79  39715.3  38736.2  7582.86
    9391.53  39759.4  38865.3  7620.1
    9394.28  39844.4  39046.4  7681.3
    9397.08  39988.5  39293.4  7734.49
    9399.83  40117.5  39505.4  7792.65
    9402.63  40182.5  39667.2  7848.8
    9405.44  40264.5  39829.1  7923.93
    9408.25  40295.4  39952.8  7989.03
    9411.06  40361.4  40112.5  8081.11
    9413.87  40429.3  40264.2  8148.18
    9416.68  40553.2  40477.7  8231.23
    9419.55  40582.2  40603.2  8290.25
    9422.37  40632  40738.7  8356.24
    9425.25  40754.9  40956  8427.22
    9428.12  40832.8  41115.4  8479.19
    9431  40890.6  41262.6  8523.13
    9433.88  40948.4  41411.8  8575.05
    9436.82  41029.2  41582.9  8628.94
    9439.71  41116  41730  8672.82
    9442.65  41220.8  41919.9  8740.68
    9445.59  41235.5  42021.9  8772.51
    9448.49  41293.2  42179.7  8836.33
    9451.43  41367  42359.5  8912.13
    9454.44  41380.7  42476.3  8961.9
    9457.4  41500.3  42670.9  9027.66
    9460.35  41553  42816.5  9048.39
    9463.36  41583.7  42948.1  9126.1
    9466.38  41668.3  43172.6  9255.8
    9469.34  41753.9  43352  9293.47
    9472.36  41820.5  43525.3  9362.12
    9475.38  41848.1  43698.6  9417.75
    9478.47  41927.7  43905.8  9474.36
    9481.49  41981.2  44069  9537.95
    9484.52  42020.7  44225.1  9586.52
    9487.61  42138.2  44464.1  9651.06
    9490.7  42153.7  44710.1  9693.6
    9493.73  42205.2  44995  9736.1
    9496.83  42314.7  45123.8  9800.59
    9499.98  42324.1  45115.6  9839.05
    9503.08  42421.6  45315.3  9892.5
    9506.18  42476  45476.9  9938.93
    9509.34  42520.4  45648.5  9987.32
    9512.44  42596.7  45813  10050.7
    9515.61  42593.1  45928.5  10119.1
    9518.77  42691.4  46115.8  10200.4
    9521.94  42668.8  46182.2  10260.7
    9525.11  42650.1  46266.4  10341
    9528.29  42646.4  46361.6  10410.3
    9531.52  42898.6  46736.7  10524.6
    9534.7  42827.9  46767.8  10575.8
    9537.94  42995.1  47056.8  10669
    9541.18  43014.4  47203.7  10749.2
    9544.42  43033.6  47353.6  10809.4
    9547.67  43077.8  47516.4  10881.6
    9550.91  43100.9  47676.2  10949.7
    9554.16  43189.1  47898.9  11035.8
    9557.42  43184.2  48011.5  11100.9
    9560.73  43253.4  48239  11186
    9563.98  43258.5  48358.5  11245
    9567.3  43339.6  48574.9  11333.1
    9570.62  43362.6  48710.3  11416.1
    9573.94  43420.7  48909.6  11477.1
    9577.27  43411.7  49019.8  11547
    9580.6  43482.7  49218  11631
    9583.99  43515.7  49425.1  11713.9
    9587.32  43544.7  49576.1  11781.8
    9590.71  43560.7  49733.1  11854.7
    9594.11  43601.7  49903  11937.6
    9597.45  43642.6  50056.9  11995.4
    9600.85  43652.5  50166.6  12069.3
    9604.31  43744.4  50403.4  12162.1
    9607.72  43759.3  50550  12220.9
    9611.12  43826.2  50759.6  12302.6
    9614.54  43845  50924.1  12360.4
    9618.01  43882.9  51094.6  12448.1
    9621.49  43926.7  51267  12517.8
    9624.9  43988.5  51468.3  12601.5
    9628.39  44033.2  51724.6  12697.1
    9631.87  44045  51815.8  12753.8
    9635.41  44105.8  52028.9  12837.4
    9638.9  44141.5  52209  12906