File: data/Fe/Fe2O3_rt_01.xdi
# XDI/1.0
# Column.1: energy eV
# Column.2: i0
# Column.3: itrans
# Beamline.name: APS 20-BM-B
# Beamline.notes: vert slits = unknown
# Detector.I0: N2 15cm
# Detector.I1: N2 15cm
# Element.edge: K
# Element.symbol: Fe
# Mono.d_spacing: 3.13550
# Mono.name: Si(111)
# Mono.notes: unfocussed, detuned 50%
# Sample.formula: Fe2O3
# Sample.name: Fe2O3 powder  Room Temperature
# Sample.prep: powder on tape, 16 layers
# Sample.reference: none
# Sample.temperature: Room Temperature
# Scan.start_time: 2001-08-10 11:45:00
# ///
#    Note: mono d_spacing is nominal!
#     data from NXS school, 2001
#     412 E XMU I0
#-------------
#   energy   i0   itrans
    6911.83  272002  121091
    6916.92  270032  120826
    6921.76  268827  120841
    6926.88  267514  120853
    6931.79  255214  115822
    6937.04  277373  126550
    6941.83  276310  126659
    6946.92  275026  126707
    6951.96  274820  127226
    6956.99  274055  127511
    6961.99  274313  128218
    6966.9  274122  128744
    6971.94  274012  129304
    6976.88  273903  129874
    6982.01  273774  130465
    6986.9  273717  131036
    6991.93  273771  131661
    6996.91  273744  132310
    7001.84  273682  132819
    7006.99  273613  133434
    7011.84  273571  134044
    7016.94  273530  134647
    7021.86  273493  135246
    7026.85  273339  135788
    7031.95  273200  136352
    7036.82  273094  136907
    7041.85  273100  137520
    7046.83  273055  138134
    7051.77  273038  138725
    7056.86  272926  139286
    7061.82  272878  139874
    7066.7  272719  140377
    7071.77  272679  140929
    7076.74  272487  141419
    7081.69  272240  141831
    7086.79  271944  142203
    7091.54  271377  142369
    7096.58  269032  141581
    7101.58  233593  123222
    7101.95  241415  127309
    7102.28  250354  132004
    7102.7  262542  138456
    7103.19  271114  142986
    7103.64  273653  144388
    7104  274140  144616
    7104.28  274237  144654
    7104.61  274276  144660
    7105.07  274202  144619
    7105.51  274103  144584
    7105.88  274067  144544
    7106.23  273949  144464
    7106.56  273943  144409
    7107.05  273839  144340
    7107.51  273788  144259
    7107.94  273727  144155
    7108.31  273623  144026
    7108.6  273590  143966
    7108.95  273576  143813
    7109.49  273456  143539
    7109.92  273401  143288
    7110.27  273327  142994
    7110.61  273273  142631
    7110.99  273230  142011
    7111.46  273134  140616
    7111.91  273116  138426
    7112.35  273037  135453
    7112.66  272990  132720
    7112.94  272954  130228
    7113.36  272875  128830
    7113.82  272865  130091
    7114.24  272838  131978
    7114.58  272794  133281
    7114.89  272826  133719
    7115.3  272779  133680
    7115.79  272740  133378
    7116.22  272758  133175
    7116.65  272686  132994
    7116.96  272664  132866
    7117.24  272587  132675
    7117.75  272623  132176
    7118.21  272490  131280
    7118.61  272448  129876
    7118.95  272395  128162
    7119.27  272362  126239
    7119.73  272328  122347
    7120.17  272323  117696
    7120.63  272228  112392
    7121.02  272144  106915
    7121.3  272163  102025
    7121.62  272149  95655.2
    7122.07  272151  88665.2
    7122.53  272115  83283.2
    7122.91  272063  79094.2
    7123.23  272072  76052.2
    7123.56  272008  72985.2
    7124.04  271977  68873.2
    7124.5  271940  64585.2
    7124.95  271971  60256.2
    7125.33  271934  56154.2
    7125.62  271894  52328.2
    7125.95  271921  47527.2
    7126.49  271883  42781.2
    7126.94  271778  39710.2
    7127.3  271574  37725.2
    7127.62  271428  36413.2
    7127.95  271247  35139.2
    7128.47  271435  33550.2
    7128.89  271483  32094.2
    7129.33  271502  30479.2
    7129.7  271482  28925.2
    7129.96  271442  27470.2
    7130.35  271330  25347.2
    7130.81  271290  23661.2
    7131.25  271271  22412.2
    7131.59  271227  21640.2
    7131.91  271228  21278.2
    7132.29  271246  21253.2
    7132.81  271227  21776.2
    7133.23  271231  22542.2
    7133.64  271252  23429.2
    7134  271186  24288.2
    7134.28  271221  25172.2
    7134.74  271245  26477.2
    7135.22  271195  27449.2
    7135.66  271199  28163.2
    7135.98  271169  28619.2
    7136.29  271165  28963.2
    7136.71  271179  29332.2
    7137.2  271145  29622.2
    7137.62  271113  29874.2
    7138.03  271145  30131.2
    7138.35  271024  30338.2
    7138.65  271084  30653.2
    7139.06  271088  31098.2
    7139.54  271041  31583.2
    7139.93  271083  32057.2
    7140.27  271066  32557.2
    7140.57  271005  33047.2
    7141.05  270977  33851.2
    7141.51  271006  34532.2
    7141.95  271050  35154.2
    7142.32  270983  35603.2
    7142.67  271034  35964.2
    7142.98  270977  36263.2
    7143.48  270941  36479.2
    7143.95  270888  36465.2
    7144.35  270977  36362.2
    7144.65  270935  36187.2
    7144.99  270901  35987.2
    7145.47  270914  35741.2
    7145.91  270947  35579.2
    7146.1  270877  35527.2
    7147.12  272298  35963
    7148.38  273526  37601.4
    7149.47  274844  39863.4
    7150.78  276131  42411.8
    7151.98  277400  44449.7
    7153.21  278652  45965.1
    7154.55  279860  47425
    7155.71  281044  48707.4
    7157.09  282313  50292.2
    7158.39  283426  51740.5
    7159.7  284619  52857.2
    7161.16  285767  53629.3
    7162.41  286944  53872.8
    7163.89  288030  53784.7
    7165.27  289122  53459
    7166.61  290202  52989.7
    7168.16  291260  52294.8
    7169.68  292302  51295.2
    7171.08  293436  50252
    7172.61  294493  48980.2
    7174.19  295500  47528.7
    7175.7  296533  46619.5
    7177.24  297604  46178.7
    7178.97  298539  45636.2
    7180.57  299464  45058
    7182.15  300244  44597.1
    7183.7  300498  44304.5
    7185.49  281419  41424.2
    7187.25  302879  44625.3
    7188.96  304579  45003.5
    7190.61  305658  45363.1
    7192.33  306684  45802
    7194.19  307644  46333.1
    7196.08  308632  46945.5
    7197.89  309593  47608.2
    7199.63  310460  48234.1
    7201.38  311358  48938.3
    7203.36  312258  49713.7
    7205.39  313188  50515.3
    7207.28  314035  51255.3
    7209.17  314883  51884.4
    7211.14  315737  52404.8
    7213.09  316728  52784.4
    7215.06  317651  53016.2
    7217.07  318603  53182.2
    7219.07  319475  53265.5
    7221.23  320296  53337
    7223.35  321156  53385.7
    7225.48  322092  53508.6
    7227.55  322905  53737.7
    7229.72  323824  54150
    7231.93  324695  54710.5
    7234.1  325615  55392.2
    7236.25  326487  56122
    7238.5  327500  56969.1
    7240.79  317803  55982.4
    7243.04  324367  57873.8
    7245.24  327902  59103.5
    7247.54  326912  59323.3
    7249.91  330122  60017.3
    7252.27  330961  60021.4
    7254.48  331692  59871.7
    7256.91  332519  59579.2
    7259.23  333302  59202.9
    7261.68  334055  58782.7
    7263.97  334819  58459.7
    7266.41  335600  58198.9
    7268.92  336355  58113.2
    7271.38  337018  58167.6
    7273.93  337987  58359.3
    7276.52  337915  58469
    7279.12  338759  58810.9
    7281.53  339358  59251
    7284.16  339852  59765.2
    7286.7  339970  60304.6
    7289.2  338240  60599.1
    7291.92  339494  61525.7
    7294.67  343904  63029.5
    7297.38  343559  63596.4
    7299.92  341958  63840.4
    7302.59  345274  64920.6
    7305.34  346102  65494.9
    7308.13  346796  65989.4
    7310.96  347441  66414
    7313.68  348089  66757.7
    7316.37  348709  66964.5
    7319.15  348868  67000.4
    7322.11  349571  67086.5
    7325.02  350435  67210.7
    7327.72  351102  67323
    7330.56  350882  67391.5
    7333.67  351337  67721
    7336.43  353117  68427.7
    7339.3  353724  68968.5
    7342.41  354248  69567.4
    7345.35  354735  70196.4
    7348.32  355110  70811.5
    7351.38  356459  71639.8
    7354.42  356814  72196.1
    7357.45  357454  72741.6
    7360.53  357995  73206.1
    7363.64  358526  73604.8
    7366.76  359139  73912.5
    7369.92  359698  74177.4
    7373.05  357296  73805.4
    7376.18  360541  74675.5
    7379.53  361153  75059.7
    7382.62  361439  75383.9
    7385.74  350053  73236.3
    7389.2  363692  76282.8
    7392.32  363935  76497.3
    7395.65  364442  76760
    7398.98  364881  77049.7
    7402.12  365491  77453.6
    7405.61  366149  77957.5
    7408.81  366636  78462.6
    7412.34  367158  79056.7
    7415.67  367638  79663.9
    7419.06  368127  80287.2
    7422.47  368694  80932.6
    7425.97  369291  81581.1
    7429.39  368765  81947.7
    7432.89  370326  82743.3
    7436.44  336964  75715.1
    7439.82  369000  83255.9
    7443.52  370702  83988.8
    7446.98  371376  84431.8
    7450.6  371979  84864.8
    7454.28  372590  85284
    7457.77  373195  85746.2
    7461.48  373805  86271.5
    7465.08  374356  86804.9
    7468.85  374908  87369.4
    7472.44  375411  87895.9
    7476.12  375838  88437.5
    7479.72  376291  88949.3
    7483.7  376846  89498
    7487.33  377286  89991.9
    7491.18  377713  90532.8
    7494.92  378178  91043.8
    7498.62  378522  91535.9
    7502.68  378859  92075
    7506.38  379198  92571.2
    7510.26  379509  93079.5
    7514.14  379972  93639.9
    7517.89  380448  94203.3
    7522  380835  94715.8
    7525.89  381290  95242.4
    7529.72  381793  95716
    7533.73  382161  96208.7
    7537.76  382521  96696.5
    7541.63  382651  97105.3
    7545.82  382085  97409.2
    7549.82  350858  89958.2
    7553.64  385317  99199.2
    7557.92  385714  99850.3
    7562  385856  100402
    7565.94  386082  100919
    7570.27  386497  101511
    7574.37  386773  102047
    7578.52  387189  102651
    7582.54  387565  103221
    7586.95  387968  103837
    7591.13  388426  104448
    7595.26  388722  105027
    7599.59  389235  105661
    7603.89  389523  106237
    7608.22  389878  106806
    7612.35  390159  107355
    7616.66  390599  107962
    7621.12  390987  108602
    7625.55  391301  109214
    7629.83  389927  109337
    7634.2  391989  110459
    7638.68  391487  110878
    7643.22  390078  111028
    7647.78  393087  112429
    7652.31  393415  113082
    7656.82  393746  113751
    7661.27  393988  114355
    7666.03  394289  115014
    7670.66  394663  115685
    7675.4  395171  116368
    7680.02  395495  116983
    7684.75  395844  117628
    7689.43  396105  118275
    7694.15  396509  118946
    7698.99  393241  118518
    7703.77  396909  120186
    7708.63  397312  120924
    7713.41  397575  121586
    7718.3  397873  122290
    7723.1  398134  122997
    7727.97  398451  123657
    7732.72  398734  124366
    7737.7  399076  125108
    7742.61  399353  125837
    7747.65  399552  126532
    7752.58  399845  127248
    7757.64  400166  127986
    7762.6  400486  128712
    7767.67  400723  129457
    7772.67  400982  130176
    7777.74  401375  130957
    7782.76  401672  131666
    7787.84  401787  132372
    7792.88  402001  133060
    7797.99  402235  133804
    7803.02  401864  134307
    7808.17  402614  135219
    7813.3  402831  135948
    7818.47  403116  136718
    7823.69  403360  137490
    7828.86  403637  138254
    7834.11  403795  138988
    7839.34  403930  139759
    7844.68  404047  140485
    7849.94  403983  141150
    7855.26  404478  142040
    7860.65  404350  142682
    7866  405062  143649
    7871.44  404112  144013
    7876.82  406337  145529
    7882.28  406089  146160
    7887.65  406102  146875
    7893.17  406258  147658
    7898.54  406264  148370
    7904.06  406563  149181
    7909.44  406609  149900
    7915.02  406832  150732
    7920.42  407015  151512
    7926.02  407232  152316
    7931.46  407437  153144
    7937.07  407620  153967
    7942.55  407632  154691
    7948.26  407869  155553
    7953.84  403585  154669
    7959.63  408241  157239
    7965.29  407925  157878
    7971.11  408834  159014
    7976.72  400704  156620
    7982.51  408820  160537
    7988.2  409027  161410
    7993.93  409171  162248
    7999.59  409230  163066
    8005.36  409347  163926
    8011.3  409372  164743
    8017.19  409418  165558
    8023.12  409473  166404
    8028.91  409807  167338
    8034.77  410006  168257
    8040.49  409877  169024
    8046.47  410089  169925
    8052.43  410269  170839
    8058.45  410359  171729
    8064.38  410553  172653
    8070.34  408779  172696
    8076.23  410736  174382
    8082.23  410861  175312
    8084.23  410812  175577