File: data/Fe/fe2o3_rt.xdi
# XDI/1.0 GSE/1.0
# Column.1: energy eV
# Column.2: mutrans
# Column.3: i0
# Element.edge: K
# Element.symbol: Fe
# Scan.edge_energy: 7112.
# Mono.name: Si 111
# Mono.d_spacing: 3.13550
# Beamline.name: 13-BM-D
# Beamline.collimation: none
# Beamline.focusing: no
# Beamline.harmonic_rejection: detuned 50%
# Facility.name: APS
# Facility.energy: 7.00 GeV
# Facility.xray_source: APS bending magnet
# Scan.start_time: 2002-03-16T14:48:54
# Detector.I0: 15cm  N2
# Detector.I1: 15cm  N2
# Sample.name: Fe2O3
# Sample.prep: powder on tape, 5 layers
# ///
# room temperature
# measured at beamline 13-BM-D
# vert slits = 2mm (at 45m)
#----
#   energy       mutrans            i0
  6962       0.452695        304063.00
  6972       0.441319        306084.00
  6982       0.428866        305972.00
  6992       0.417202        305954.00
  7002       0.40586        305931.00
  7012       0.394767        305999.00
  7022       0.382274        306003.00
  7032       0.371575        305809.00
  7042       0.359829        305752.00
  7052       0.348042        305475.00
  7062       0.337169        305660.00
  7072       0.327107        305579.00
  7082       0.316471        305811.00
  7092       0.305603        305451.00
  7092.5       0.305634        305329.00
  7093       0.305107        305069.00
  7093.5       0.303904        305163.00
  7094       0.3034        305062.00
  7094.5       0.302477        305020.00
  7095       0.30161        305010.00
  7095.5       0.301436        304904.00
  7096       0.301823        305018.00
  7096.5       0.300646        305066.00
  7097       0.300535        304982.00
  7097.5       0.299904        304961.00
  7098       0.299396        305095.00
  7098.5       0.299011        305127.00
  7099       0.298487        304664.00
  7099.5       0.298016        304778.00
  7100       0.297175        305025.00
  7100.5       0.297265        304611.00
  7101       0.296994        304702.00
  7101.5       0.295413        304734.00
  7102       0.295873        304780.00
  7102.5       0.294942        304780.00
  7103       0.294104        304695.00
  7103.5       0.293888        304695.00
  7104       0.292978        304627.00
  7104.5       0.292805        304495.00
  7105       0.292304        304510.00
  7105.5       0.291376        304514.00
  7106       0.291351        304517.00
  7106.5       0.291262        304692.00
  7107       0.291431        304587.00
  7107.5       0.290609        304413.00
  7108       0.290056        304635.00
  7108.5       0.290319        304433.00
  7109       0.289902        304413.00
  7109.5       0.288749        304233.00
  7110       0.289093        304212.00
  7110.5       0.288668        304323.00
  7111       0.289174        304194.00
  7111.5       0.290438        304147.00
  7112       0.292674        304269.00
  7112.5       0.294945        304253.00
  7113       0.296009        304160.00
  7113.5       0.298012        304293.00
  7114       0.298889        303972.00
  7114.5       0.297233        304305.00
  7115       0.295987        304222.00
  7115.5       0.295707        304110.00
  7116       0.296126        303631.00
  7116.5       0.296051        303264.00
  7117       0.295521        303892.00
  7117.5       0.296141        304847.00
  7118       0.296448        304283.00
  7118.5       0.29779        303835.00
  7119       0.299939        303819.00
  7119.5       0.30345        303972.00
  7120       0.308311        303798.00
  7120.5       0.315325        303964.00
  7121       0.326191        303865.00
  7121.5       0.341593        303773.00
  7122       0.360051        303565.00
  7122.5       0.380218        304826.00
  7123       0.399856        305066.00
  7123.5       0.415562        305418.00
  7124       0.431076        305544.00
  7124.5       0.447635        305578.00
  7125       0.465848        305514.00
  7125.5       0.487507        305555.00
  7126       0.510102        305463.00
  7126.5       0.531964        305373.00
  7127       0.552745        305367.00
  7127.5       0.571946        305396.00
  7128       0.589767        305307.00
  7128.5       0.605416        305306.00
  7129       0.615749        305284.00
  7129.5       0.620231        305231.00
  7130       0.621519        305226.00
  7130.5       0.623153        305162.00
  7131       0.625871        305282.00
  7131.5       0.632184        305375.00
  7132       0.639309        305470.00
  7132.88       0.643902        304944.00
  7133.78       0.638536        305147.00
  7134.71       0.622981        305143.00
  7135.65       0.60703        304964.00
  7136.61       0.596353        305115.00
  7137.58       0.586418        305106.00
  7138.58       0.572886        305011.00
  7139.6       0.559012        305020.00
  7140.63       0.545217        305100.00
  7141.69       0.533794        305141.00
  7142.76       0.525836        304915.00
  7143.86       0.521294        304975.00
  7144.97       0.519419        304686.00
  7146.1       0.518836        304915.00
  7147.25       0.51735        304662.00
  7148.42       0.511235        304742.00
  7149.61       0.502508        304795.00
  7150.81       0.494079        304731.00
  7152.04       0.485709        304704.00
  7153.29       0.478695        304724.00
  7154.55       0.471282        304758.00
  7155.83       0.464516        304676.00
  7157.14       0.457678        304547.00
  7158.46       0.452522        304630.00
  7159.8       0.449523        304569.00
  7161.16       0.447497        304622.00
  7162.54       0.447821        304602.00
  7163.94       0.448444        304488.00
  7165.35       0.449973        304438.00
  7166.79       0.451375        304433.00
  7168.25       0.454756        304785.00
  7169.72       0.460096        304443.00
  7171.21       0.465457        303077.00
  7172.73       0.473775        305737.00
  7174.26       0.482301        304563.00
  7175.81       0.487949        304229.00
  7177.38       0.490218        304285.00
  7178.97       0.491115        304282.00
  7180.57       0.490083        304190.00
  7182.2       0.488723        304419.00
  7183.85       0.485761        304086.00
  7185.51       0.482575        304248.00
  7187.2       0.47918        304024.00
  7188.9       0.476264        304976.00
  7190.62       0.473844        305363.00
  7192.36       0.469573        306040.00
  7194.13       0.465176        305949.00
  7195.91       0.460378        306009.00
  7197.7       0.456919        306072.00
  7199.52       0.45215        306005.00
  7201.36       0.447554        305966.00
  7203.22       0.442774        306058.00
  7205.09       0.438101        305815.00
  7206.98       0.434723        305837.00
  7208.9       0.4322        305812.00
  7210.83       0.429508        305912.00
  7212.78       0.427282        305785.00
  7214.75       0.425179        305767.00
  7216.74       0.424106        305824.00
  7218.75       0.422984        305701.00
  7220.78       0.420832        305842.00
  7222.82       0.420799        305532.00
  7224.89       0.418331        305619.00
  7226.98       0.415958        305695.00
  7229.08       0.412556        305604.00
  7231.2       0.409726        305516.00
  7233.34       0.406853        305622.00
  7235.51       0.405376        305525.00
  7237.69       0.403497        305402.00
  7239.89       0.401699        305490.00
  7242.1       0.398464        305516.00
  7244.34       0.395121        305567.00
  7246.6       0.390677        305393.00
  7248.87       0.387403        305361.00
  7251.17       0.384397        305330.00
  7253.48       0.381401        305171.00
  7255.81       0.379417        305434.00
  7258.17       0.378946        305204.00
  7260.54       0.378251        305271.00
  7262.93       0.37737        305266.00
  7265.34       0.375221        304848.00
  7267.77       0.374361        305531.00
  7270.21       0.373426        305414.00
  7272.68       0.37062        305210.00
  7275.16       0.368134        305094.00
  7277.67       0.366832        305036.00
  7280.19       0.364448        305077.00
  7282.73       0.362299        305218.00
  7285.3       0.35947        304873.00
  7287.88       0.356107        304993.00
  7290.48       0.352838        304991.00
  7293.1       0.349571        304816.00
  7295.73       0.345821        304834.00
  7298.39       0.341997        304853.00
  7301.07       0.33718        304716.00
  7303.76       0.331986        303960.00
  7306.48       0.327712        305485.00
  7309.21       0.323683        304743.00
  7311.96       0.318681        304657.00
  7314.74       0.314111        304615.00
  7317.53       0.309361        304643.00
  7320.34       0.305369        304598.00
  7323.16       0.302673        304621.00
  7326.01       0.300579        304886.00
  7328.88       0.299319        304869.00
  7331.77       0.297898        306256.00
  7334.67       0.297256        306276.00
  7337.6       0.29591        306461.00
  7340.54       0.294978        306432.00
  7343.5       0.293379        306357.00
  7346.48       0.289818        306266.00
  7349.48       0.286634        306278.00
  7352.5       0.282647        306252.00
  7355.54       0.278754        306209.00
  7358.6       0.274823        306162.00
  7361.68       0.27046        306292.00
  7364.77       0.265621        306111.00
  7367.89       0.26199        306080.00
  7371.02       0.257744        306151.00
  7374.18       0.254197        306091.00
  7377.35       0.250469        306085.00
  7380.54       0.24675        306103.00
  7383.75       0.243831        306191.00
  7386.98       0.239955        306270.00
  7390.23       0.236514        305978.00
  7393.49       0.232883        305778.00
  7396.78       0.229781        306084.00
  7400.09       0.228224        305917.00
  7403.41       0.226322        305781.00
  7406.76       0.224285        305902.00
  7410.12       0.221859        305634.00
  7413.5       0.218063        305104.00
  7416.9       0.215182        306612.00
  7420.32       0.211585        305604.00
  7423.76       0.207573        305398.00
  7427.22       0.203018        305936.00
  7430.7       0.198994        305659.00
  7434.19       0.194258        305761.00
  7437.71       0.189253        305491.00
  7441.24       0.185189        305559.00
  7444.8       0.180784        305395.00
  7448.37       0.176267        305487.00
  7451.96       0.172262        305404.00
  7455.57       0.169038        305469.00
  7459.2       0.166236        305436.00
  7462.85       0.162824        305430.00
  7466.52       0.159823        305382.00
  7470.21       0.156661        305322.00
  7473.91       0.15345        305312.00
  7477.64       0.150275        305525.00
  7481.39       0.147143        305158.00
  7485.15       0.143641        305241.00
  7488.93       0.139444        304994.00
  7492.73       0.135785        305338.00
  7496.55       0.132052        305063.00
  7500.39       0.128029        305075.00
  7504.25       0.124002        304218.00
  7508.13       0.120049        305859.00
  7512.03       0.11668        305190.00
  7515.94       0.112476        305022.00
  7519.88       0.108542        305095.00
  7523.83       0.104454        304936.00
  7527.81       0.100494        305039.00
  7531.8       0.0972672    304981.00
  7535.81       0.0932533    305070.00
  7539.84       0.0898423    304867.00
  7543.89       0.0861654    304934.00
  7547.96       0.0822276    304843.00
  7552.05       0.0784962    304772.00
  7556.16       0.0742759    304753.00
  7560.28       0.0701037    305033.00
  7564.43       0.0662906    304837.00
  7568.59       0.0623945    304600.00
  7572.77       0.0584875    304570.00
  7576.98       0.0548954    304490.00
  7581.2       0.0510024    304656.00
  7585.44       0.0464308    304756.00
  7589.7       0.0435321    304346.00
  7593.98       0.0386613    304603.00
  7598.27       0.0351385    304492.00
  7602.59       0.0307897    304467.00
  7606.93       0.0267451    304525.00
  7611.28       0.0230901    304510.00
  7615.66       0.0195551    304444.00
  7620.05       0.0152898    304518.00
  7624.46       0.0112843    304396.00
  7628.89       0.00787611    304595.00
  7633.34       0.00336619    304297.00
  7637.81      -0.000514117    304133.00
  7642.3      -0.00543628    304233.00
  7646.81      -0.00961673    304291.00
  7651.34      -0.0135806    304128.00
  7655.88      -0.0181069    304097.00
  7660.45      -0.0227307    302397.00
  7665.03      -0.0268015    305641.00
  7669.63      -0.030568    304104.00
  7674.26      -0.0341576    304032.00
  7678.9      -0.037866    303959.00
  7683.56      -0.0412652    304151.00
  7688.24      -0.0451157    304003.00
  7692.94      -0.0497338    303864.00
  7697.65      -0.0534403    303920.00
  7702.39      -0.0571858    303868.00
  7707.14      -0.0616234    303821.00
  7711.92      -0.0658025    303862.00
  7716.71      -0.0699187    303771.00
  7721.52      -0.0740791    303847.00
  7726.36      -0.0788095    303658.00
  7731.21      -0.0821212    303601.00
  7736.08      -0.0867527    300202.00
  7740.97      -0.0908718    307241.00
  7745.88      -0.0945842    303648.00
  7750.8      -0.0990289    303525.00
  7755.75      -0.103735        303690.00
  7760.72      -0.107659        303652.00
  7765.7      -0.11233        303624.00
  7770.7      -0.116561        303564.00
  7775.73      -0.120766        303095.00
  7780.77      -0.124818        303863.00
  7785.83      -0.128852        303533.00
  7790.91      -0.132572        303394.00
  7796.01      -0.13774        303490.00
  7801.12      -0.141364        303399.00
  7806.26      -0.145984        303353.00
  7811.42      -0.15013        304068.00
  7816.59      -0.154037        304150.00
  7821.79      -0.158104        305271.00
  7827      -0.162935        304624.00
  7832.23      -0.167274        305778.00
  7837.48      -0.171596        305262.00
  7842.76      -0.175175        305223.00
  7848.05      -0.179453        305127.00
  7853.35      -0.183812        305185.00
  7858.68      -0.188114        305126.00
  7864.03      -0.192359        305086.00
  7869.4      -0.196679        305053.00
  7874.78      -0.200444        305131.00
  7880.19      -0.204455        305027.00
  7885.61      -0.208779        304982.00
  7891.05      -0.213282        305007.00
  7896.51      -0.217105        304866.00
  7901.99      -0.221308        304893.00
  7907.49      -0.225743        304925.00
  7913.01      -0.230097        305206.00
  7918.55      -0.234972        304593.00
  7924.1      -0.239191        304785.00
  7929.68      -0.24381        304758.00
  7935.28      -0.247841        304716.00
  7940.89      -0.252009        304386.00
  7946.52      -0.255689        305063.00
  7952.18      -0.260476        304668.00
  7957.85      -0.264269        304668.00
  7963.54      -0.268625        304556.00
  7969.25      -0.273007        304796.00