File: data/Fe/Fe3C_rt_01.xdi
# XDI/1.0 GSE/1.0
# Column.1: energy eV
# Column.2: i0
# Column.3: itrans
# Beamline.name: APS 13-BM-D
# Beamline.notes: vert slits = 2mm (at 45m)
# Beamline.collimation: none
# Beamline.focusing: no
# Beamline.harmonic_rejection: detuned 50%
# Facility.name: APS
# Facility.energy: 7.00 GeV
# Facility.xray_source: APS bending magnet
# Detector.I0: N2 15cm
# Detector.I1: N2 15cm
# Element.edge: K
# Element.symbol: Fe
# Mono.d_spacing: 3.13550
# Mono.name: Si(111)
# Mono.notes: unfocussed, detuned 50%
# Sample.formula: Fe3C
# Sample.name: Fe3C
# Sample.prep: powder on tape, 6 layers
# Sample.reference: none
# Sample.temperature: Room Temperature
# Scan.edge_energy: 7112.
# Scan.start_time: 2002-03-16 18:27:34
# ///
#    Note: mono d_spacing is nominal!
#     Energy drive values recorded (encoder used, not recorded)
#     348 E XMU I0
#-------------
#   energy   i0   itrans
    6962  303824  325700
    6972  305991  332501
    6982  305928  337065
    6992  306047  341643
    7002  305832  345887
    7012  305864  350304
    7022  305784  354811
    7032  305481  358919
    7042  306034  364086
    7052  305729  368544
    7062  305627  372694
    7072  305651  377221
    7082  305690  381021
    7092  305571  383952
    7092.5  305283  383745
    7093  305205  383765
    7093.5  305135  383911
    7094  305147  383930
    7094.5  305156  383955
    7095  305162  384098
    7095.5  305091  383978
    7096  305095  384174
    7096.5  305007  384180
    7097  305034  384186
    7097.5  305040  384319
    7098  304900  384131
    7098.5  304954  384096
    7099  304931  383964
    7099.5  304859  383942
    7100  304833  383704
    7100.5  304835  383638
    7101  304790  383435
    7101.5  304771  383418
    7102  304790  383417
    7102.5  304759  383050
    7103  304703  382682
    7103.5  304650  382208
    7104  304649  381700
    7104.5  304621  381376
    7105  304602  380695
    7105.5  304574  379990
    7106  304512  379290
    7106.5  304456  378214
    7107  304566  377076
    7107.5  304571  375195
    7108  304443  372947
    7108.5  304433  369947
    7109  304409  365594
    7109.5  304364  358261
    7110  304374  344961
    7110.5  304366  323225
    7111  304309  292683
    7111.5  305033  265184
    7112  305844  248451
    7112.5  306297  237689
    7113  306306  230833
    7113.5  306322  225554
    7114  306287  219463
    7114.5  306259  210977
    7115  306197  202380
    7115.5  306196  193564
    7116  305840  185756
    7116.5  305560  179702
    7117  306057  173555
    7117.5  306633  165743
    7118  306467  156184
    7118.5  306220  144423
    7119  306082  133187
    7119.5  305987  122409
    7120  306005  112199
    7120.5  305909  102890
    7121  305961  93797.5
    7121.5  305900  84477.5
    7122  305905  76169.5
    7122.5  305906  68412.5
    7123  305859  61554.5
    7123.5  305863  56121.5
    7124  305824  51478.5
    7124.5  305744  47573.5
    7125  305747  44461.5
    7125.5  305745  41768.5
    7126  305646  39409.5
    7126.5  305680  37358.5
    7127  305695  35337.5
    7127.5  305661  33629.5
    7128  305601  32151.5
    7128.5  305565  30941.5
    7129  305533  30055.5
    7129.5  305537  29521.5
    7130  305541  29405.5
    7130.5  305424  29482.5
    7131  305459  29801.5
    7131.5  305451  30334.5
    7132  305484  30945.5
    7132.88  305533  32484.5
    7133.78  305477  34148.5
    7134.71  305453  35961.5
    7135.65  305390  37173.5
    7136.61  305315  37709.5
    7137.58  305301  37939.5
    7138.58  305320  37871.5
    7139.6  305299  37752.5
    7140.63  305279  37671.5
    7141.69  305195  37700.5
    7142.76  305209  37753.5
    7143.86  305179  37965.5
    7144.97  305151  38105.5
    7146.1  305131  38088.5
    7147.25  305153  38089.5
    7148.42  305074  37958.5
    7149.61  305015  37772.5
    7150.81  305018  37483.5
    7152.04  305004  37085.5
    7153.29  305051  36775.5
    7154.55  304999  36622.5
    7155.83  304982  36662.5
    7157.14  304941  36781.5
    7158.46  304945  37136.5
    7159.8  304876  37775.5
    7161.16  304838  38738.5
    7162.54  304795  40023.5
    7163.94  304757  41363.5
    7165.35  304730  42583.5
    7166.79  304688  43692.5
    7168.25  304651  44731.5
    7169.72  304589  45507.5
    7171.21  303616  45992.5
    7172.73  305872  46540.5
    7174.26  304687  46389.5
    7175.81  304592  46186.5
    7177.38  304457  45743.5
    7178.97  304608  45050.5
    7180.57  304488  44130.5
    7182.2  304506  42913.5
    7183.85  304494  41776.5
    7185.51  304401  40765.5
    7187.2  304453  40001.5
    7188.9  304334  39309.5
    7190.62  304291  38687.5
    7192.36  304393  38253.5
    7194.13  304335  37833.5
    7195.91  304314  37515.5
    7197.7  304280  37379.5
    7199.52  304217  37273.5
    7201.36  304244  37220.5
    7203.22  304257  37378.5
    7205.09  304155  37646.5
    7206.98  304153  38290.5
    7208.9  304107  39076.5
    7210.83  304015  40009.5
    7212.78  304050  40984.5
    7214.75  304076  41986.5
    7216.74  303948  42973.5
    7218.75  303936  44040.5
    7220.78  303867  45195.5
    7222.82  303937  46263.5
    7224.89  303964  47250.5
    7226.98  303900  48133.5
    7229.08  303836  48993.5
    7231.2  303787  49684.5
    7233.34  303763  50293.5
    7235.51  303720  50705.5
    7237.69  303776  50780.5
    7239.89  303781  50563.5
    7242.1  303726  49868.5
    7244.34  303627  48787.5
    7246.6  303598  47565.5
    7248.87  303596  46259.5
    7251.17  303548  45112.5
    7253.48  303676  44165.5
    7255.81  303559  43418.5
    7258.17  303550  42855.5
    7260.54  303445  42564.5
    7262.93  303475  42574.5
    7265.34  303262  42952.5
    7267.77  304226  43791.5
    7270.21  304192  44696.5
    7272.68  305417  45945.5
    7275.16  305518  47150.5
    7277.67  305487  48401.5
    7280.19  305488  49607.5
    7282.73  305455  50575.5
    7285.3  305447  51335.5
    7287.88  305430  51756.5
    7290.48  305364  52146.5
    7293.1  305338  52584.5
    7295.73  305248  52864.5
    7298.39  305303  53158.5
    7301.07  305163  53498.5
    7303.76  304340  53542.5
    7306.48  305948  54101.5
    7309.21  305121  54175.5
    7311.96  305111  54392.5
    7314.74  305095  54594.5
    7317.53  305113  54786.5
    7320.34  305039  54739.5
    7323.16  305049  54711.5
    7326.01  305056  54574.5
    7328.88  304937  54392.5
    7331.77  304990  54079.5
    7334.67  304956  53944.5
    7337.6  304911  53882.5
    7340.54  304860  54020.5
    7343.5  304852  54346.5
    7346.48  304836  54958.5
    7349.48  304740  55674.5
    7352.5  304763  56497.5
    7355.54  304772  57411.5
    7358.6  304791  58365.5
    7361.68  304771  59348.5
    7364.77  304723  60240.5
    7367.89  304636  60945.5
    7371.02  304655  61497.5
    7374.18  304614  61812.5
    7377.35  304611  62168.5
    7380.54  304542  62384.5
    7383.75  304602  62813.5
    7386.98  304591  62977.5
    7390.23  304425  63209.5
    7393.49  304477  63408.5
    7396.78  304421  63618.5
    7400.09  304394  63947.5
    7403.41  304458  64224.5
    7406.76  304391  64497.5
    7410.12  304275  64745.5
    7413.5  303637  64841.5
    7416.9  304936  65264.5
    7420.32  304219  65470.5
    7423.76  303942  66018.5
    7427.22  304416  66655.5
    7430.7  304240  67051.5
    7434.19  304220  67614.5
    7437.71  304107  67980.5
    7441.24  304056  68504.5
    7444.8  304045  69157.5
    7448.37  304015  69945.5
    7451.96  304381  70676.5
    7455.57  305842  71662.5
    7459.2  306018  72253.5
    7462.85  306038  72851.5
    7466.52  305962  73370.5
    7470.21  305857  73929.5
    7473.91  305862  74481.5
    7477.64  306074  75060.5
    7481.39  305815  75639.5
    7485.15  305862  76169.5
    7488.93  305859  76619.5
    7492.73  305787  77187.5
    7496.55  305724  77538.5
    7500.39  305732  77867.5
    7504.25  304978  78164.5
    7508.13  306528  78950.5
    7512.03  305780  79109.5
    7515.94  305727  79579.5
    7519.88  305712  80090.5
    7523.83  305583  80778.5
    7527.81  305555  81353.5
    7531.8  305501  82042.5
    7535.81  305489  82653.5
    7539.84  305490  83181.5
    7543.89  305563  83746.5
    7547.96  305508  84380.5
    7552.05  305338  84852.5
    7556.16  305370  85473.5
    7560.28  305331  86142.5
    7564.43  305393  86855.5
    7568.59  305367  87709.5
    7572.77  305329  88370.5
    7576.98  305242  89119.5
    7581.2  305252  89846.5
    7585.44  305208  90407.5
    7589.7  305005  91080.5
    7593.98  305418  91764.5
    7598.27  305210  92445.5
    7602.59  305181  92990.5
    7606.93  305015  93614.5
    7611.28  305214  94250.5
    7615.66  305074  94858.5
    7620.05  304975  95514.5
    7624.46  304993  96265.5
    7628.89  304917  96925.5
    7633.34  304956  97630.5
    7637.81  304835  98399.5
    7642.3  304866  99133.5
    7646.81  304800  99890.5
    7651.34  304803  100521
    7655.88  304712  101145
    7660.45  302908  101128
    7665.03  306256  103214
    7669.63  304688  103298
    7674.26  304557  104014
    7678.9  304587  104681
    7683.56  304635  105521
    7688.24  304522  106155
    7692.94  304540  106946
    7697.65  304474  107930
    7702.39  304801  108823
    7707.14  306247  110218
    7711.92  306415  111207
    7716.71  306510  112066
    7721.52  306402  112877
    7726.36  306338  113613
    7731.21  306328  114451
    7736.08  302578  114208
    7740.97  310220  117657
    7745.88  306336  117100
    7750.8  306199  117888
    7755.75  306225  118874
    7760.72  306240  119839
    7765.7  306168  120658
    7770.7  306228  121461
    7775.73  305801  122363
    7780.77  306392  123413
    7785.83  306113  124252
    7790.91  306042  125093
    7796.01  306017  126101
    7801.12  305924  126855
    7806.26  305997  127863
    7811.42  305958  128727
    7816.59  305922  129723
    7821.79  305897  130658
    7827  305268  131287
    7832.23  306321  132911
    7837.48  305782  133676
    7842.76  305777  134629
    7848.05  305755  135745
    7853.35  305735  136597
    7858.68  305743  137789
    7864.03  305676  138747
    7869.4  305656  139923
    7874.78  305677  140825
    7880.19  305544  141827
    7885.61  305613  142999
    7891.05  305491  144058
    7896.51  305476  145090
    7901.99  305596  146369
    7907.49  305454  147442
    7913.01  305450  148476
    7918.55  305405  149703
    7924.1  305403  150626
    7929.68  305440  151771
    7935.28  305307  152837
    7940.89  304924  153812
    7946.52  305789  155221
    7952.18  305292  156156
    7957.85  305281  157393
    7963.54  305145  158411
    7969.25  305496  159748