File: data/Fe/fe3c_rt.xdi
# XDI/1.0 GSE/1.0
# Column.1: energy eV
# Column.2: mutrans
# Column.3: i0
# Element.edge: K
# Element.symbol: Fe
# Scan.edge_energy: 7112.
# Mono.name: Si 111
# Mono.d_spacing: 3.13550
# Beamline.name: 13-BM-D
# Beamline.collimation: none
# Beamline.focusing: no
# Beamline.harmonic_rejection: detuned 50%
# Facility.name: APS
# Facility.energy: 7.00 GeV
# Facility.xray_source: APS bending magnet
# Scan.start_time: 2002-03-16T18:27:34
# Detector.I0: 15cm  N2
# Detector.I1: 15cm  N2
# Sample.name: Fe3C
# Sample.prep: powder on tape, 6 layers
# ///
# room temperature
# measured at beamline 13-BM-D
# vert slits = 2mm (at 45m)
#----
#   energy       mutrans            i0
  6962      -0.0695303    303823.80
  6972      -0.0830893    305990.80
  6982      -0.0969281    305927.80
  6992      -0.11003        306046.80
  7002      -0.123078        305831.80
  7012      -0.135663        305863.80
  7022      -0.148706        305783.80
  7032      -0.161211        305480.80
  7042      -0.173696        306033.80
  7052      -0.18686        305728.80
  7062      -0.198392        305626.80
  7072      -0.210389        305650.80
  7082      -0.220285        305689.80
  7092      -0.228335        305570.80
  7092.5      -0.228738        305282.80
  7093      -0.229049        305204.80
  7093.5      -0.229658        305134.80
  7094      -0.229669        305146.80
  7094.5      -0.229704        305155.80
  7095      -0.230057        305161.80
  7095.5      -0.229977        305090.80
  7096      -0.230472        305094.80
  7096.5      -0.230776        305006.80
  7097      -0.230703        305033.80
  7097.5      -0.231029        305039.80
  7098      -0.231002        304899.80
  7098.5      -0.230734        304953.80
  7099      -0.230465        304930.80
  7099.5      -0.230644        304858.80
  7100      -0.230107        304832.80
  7100.5      -0.229931        304834.80
  7101      -0.229549        304789.80
  7101.5      -0.229567        304770.80
  7102      -0.2295        304789.80
  7102.5      -0.228644        304758.80
  7103      -0.227866        304702.80
  7103.5      -0.226803        304649.80
  7104      -0.225477        304648.80
  7104.5      -0.224717        304620.80
  7105      -0.222994        304601.80
  7105.5      -0.221233        304573.80
  7106      -0.219593        304511.80
  7106.5      -0.216936        304455.80
  7107      -0.213558        304565.80
  7107.5      -0.208544        304570.80
  7108      -0.202952        304442.80
  7108.5      -0.194911        304432.80
  7109      -0.183151        304408.80
  7109.5      -0.163037        304363.80
  7110      -0.125173        304373.80
  7110.5      -0.0601169    304365.80
  7111       0.0389512    304308.80
  7111.5       0.139997        305032.80
  7112       0.207827        305843.80
  7112.5       0.253594        306296.80
  7113       0.282892        306305.80
  7113.5       0.306079        306321.80
  7114       0.333341        306286.80
  7114.5       0.372684        306258.80
  7115       0.414083        306196.80
  7115.5       0.458619        306195.80
  7116       0.49863        305839.80
  7116.5       0.530848        305559.80
  7117       0.567279        306056.80
  7117.5       0.61521        306632.80
  7118       0.674071        306466.80
  7118.5       0.75156        306219.80
  7119       0.832102        306081.80
  7119.5       0.916178        305986.80
  7120        1.00332        306004.80
  7120.5        1.08963        305908.80
  7121        1.18232        305960.80
  7121.5        1.28677        305899.80
  7122        1.39031        305904.80
  7122.5        1.49772        305905.80
  7123        1.6032        305858.80
  7123.5        1.69562        305862.80
  7124        1.78184        305823.80
  7124.5        1.86047        305743.80
  7125        1.92813        305746.80
  7125.5        1.99061        305744.80
  7126        2.04842        305645.80
  7126.5        2.10198        305679.80
  7127        2.15764        305694.80
  7127.5        2.20707        305660.80
  7128        2.25182        305600.80
  7128.5        2.29006        305564.80
  7129        2.31901        305532.80
  7129.5        2.33695        305536.80
  7130        2.3409        305540.80
  7130.5        2.3379        305423.80
  7131        2.32726        305458.80
  7131.5        2.3095        305450.80
  7132        2.28967        305483.80
  7132.88        2.24129        305532.80
  7133.78        2.19116        305476.80
  7134.71        2.13935        305452.80
  7135.65        2.10599        305389.80
  7136.61        2.09143        305314.80
  7137.58        2.0853        305300.80
  7138.58        2.08716        305319.80
  7139.6        2.09024        305298.80
  7140.63        2.09232        305278.80
  7141.69        2.09128        305194.80
  7142.76        2.08992        305208.80
  7143.86        2.08422        305178.80
  7144.97        2.08045        305150.80
  7146.1        2.08083        305130.80
  7147.25        2.08087        305152.80
  7148.42        2.08406        305073.80
  7149.61        2.08878        305014.80
  7150.81        2.09647        305017.80
  7152.04        2.1071        305003.80
  7153.29        2.11565        305050.80
  7154.55        2.11964        304998.80
  7155.83        2.1185        304981.80
  7157.14        2.11512        304940.80
  7158.46        2.10553        304944.80
  7159.8        2.08824        304875.80
  7161.16        2.06295        304837.80
  7162.54        2.03017        304794.80
  7163.94        1.99712        304756.80
  7165.35        1.96796        304729.80
  7166.79        1.94211        304687.80
  7168.25        1.91849        304650.80
  7169.72        1.90109        304588.80
  7171.21        1.88728        303615.80
  7172.73        1.88284        305871.80
  7174.26        1.88221        304686.80
  7175.81        1.88628        304591.80
  7177.38        1.89548        304456.80
  7178.97        1.91124        304607.80
  7180.57        1.93148        304487.80
  7182.2        1.9595        304505.80
  7183.85        1.98632        304493.80
  7185.51        2.01051        304400.80
  7187.2        2.0296        304452.80
  7188.9        2.04666        304333.80
  7190.62        2.06247        304290.80
  7192.36        2.07408        304392.80
  7194.13        2.08493        304334.80
  7195.91        2.09331        304313.80
  7197.7        2.09683        304279.80
  7199.52        2.09946        304216.80
  7201.36        2.10097        304243.80
  7203.22        2.09678        304256.80
  7205.09        2.0893        304154.80
  7206.98        2.07233        304152.80
  7208.9        2.05186        304106.80
  7210.83        2.02796        304014.80
  7212.78        2.004        304049.80
  7214.75        1.97993        304075.80
  7216.74        1.95627        303947.80
  7218.75        1.93171        303935.80
  7220.78        1.90559        303866.80
  7222.82        1.88247        303936.80
  7224.89        1.86145        303963.80
  7226.98        1.84272        303899.80
  7229.08        1.8248        303835.80
  7231.2        1.81063        303786.80
  7233.34        1.79837        303762.80
  7235.51        1.79007        303719.80
  7237.69        1.78878        303775.80
  7239.89        1.79308        303780.80
  7242.1        1.80674        303725.80
  7244.34        1.82833        303626.80
  7246.6        1.8536        303597.80
  7248.87        1.88143        303595.80
  7251.17        1.90638        303547.80
  7253.48        1.92802        303675.80
  7255.81        1.94469        303558.80
  7258.17        1.95771        303549.80
  7260.54        1.96418        303444.80
  7262.93        1.96404        303474.80
  7265.34        1.9545        303261.80
  7267.77        1.93833        304225.80
  7270.21        1.91776        304191.80
  7272.68        1.89422        305416.80
  7275.16        1.86866        305517.80
  7277.67        1.84238        305486.80
  7280.19        1.81777        305487.80
  7282.73        1.79833        305454.80
  7285.3        1.78339        305446.80
  7287.88        1.77517        305429.80
  7290.48        1.76745        305363.80
  7293.1        1.759        305337.80
  7295.73        1.75339        305247.80
  7298.39        1.74803        305302.80
  7301.07        1.74119        305162.80
  7303.76        1.73767        304339.80
  7306.48        1.73255        305947.80
  7309.21        1.72848        305120.80
  7311.96        1.72445        305110.80
  7314.74        1.72069        305094.80
  7317.53        1.71724        305112.80
  7320.34        1.71785        305038.80
  7323.16        1.7184        305048.80
  7326.01        1.72093        305055.80
  7328.88        1.72388        304936.80
  7331.77        1.72982        304989.80
  7334.67        1.73221        304955.80
  7337.6        1.73321        304910.80
  7340.54        1.73049        304859.80
  7343.5        1.72445        304851.80
  7346.48        1.71319        304835.80
  7349.48        1.69994        304739.80
  7352.5        1.68534        304762.80
  7355.54        1.66932        304771.80
  7358.6        1.6529        304790.80
  7361.68        1.63613        304770.80
  7364.77        1.62106        304722.80
  7367.89        1.60914        304635.80
  7371.02        1.60018        304654.80
  7374.18        1.59494        304613.80
  7377.35        1.58919        304610.80
  7380.54        1.58549        304541.80
  7383.75        1.57884        304601.80
  7386.98        1.57619        304590.80
  7390.23        1.57197        304424.80
  7393.49        1.569        304476.80
  7396.78        1.56551        304420.80
  7400.09        1.56026        304393.80
  7403.41        1.55615        304457.80
  7406.76        1.55169        304390.80
  7410.12        1.54747        304274.80
  7413.5        1.54389        303636.80
  7416.9        1.54165        304935.80
  7420.32        1.53615        304218.80
  7423.76        1.5269        303941.80
  7427.22        1.51886        304415.80
  7430.7        1.51236        304239.80
  7434.19        1.50393        304219.80
  7437.71        1.49816        304106.80
  7441.24        1.49031        304055.80
  7444.8        1.48079        304044.80
  7448.37        1.46936        304014.80
  7451.96        1.46017        304380.80
  7455.57        1.4511        305841.80
  7459.2        1.44346        306017.80
  7462.85        1.43529        306037.80
  7466.52        1.42794        305961.80
  7470.21        1.42001        305856.80
  7473.91        1.41258        305861.80
  7477.64        1.40553        306073.80
  7481.39        1.397        305814.80
  7485.15        1.39017        305861.80
  7488.93        1.38427        305858.80
  7492.73        1.37665        305786.80
  7496.55        1.37191        305723.80
  7500.39        1.3677        305731.80
  7504.25        1.36142        304977.80
  7508.13        1.35649        306527.80
  7512.03        1.35203        305779.80
  7515.94        1.34594        305726.80
  7519.88        1.33949        305711.80
  7523.83        1.33051        305582.80
  7527.81        1.32333        305554.80
  7531.8        1.31472        305500.80
  7535.81        1.30726        305488.80
  7539.84        1.30089        305489.80
  7543.89        1.29436        305562.80
  7547.96        1.28664        305507.80
  7552.05        1.2805        305337.80
  7556.16        1.27332        305369.80
  7560.28        1.26539        305330.80
  7564.43        1.25735        305392.80
  7568.59        1.24748        305366.80
  7572.77        1.23985        305328.80
  7576.98        1.23113        305241.80
  7581.2        1.22303        305251.80
  7585.44        1.21667        305207.80
  7589.7        1.20858        305004.80
  7593.98        1.20246        305417.80
  7598.27        1.19438        305209.80
  7602.59        1.18841        305180.80
  7606.93        1.18118        305014.80
  7611.28        1.17506        305213.80
  7615.66        1.16817        305073.80
  7620.05        1.16095        304974.80
  7624.46        1.15318        304992.80
  7628.89        1.1461        304916.80
  7633.34        1.13898        304955.80
  7637.81        1.13073        304834.80
  7642.3        1.1234        304865.80
  7646.81        1.11558        304799.80
  7651.34        1.1093        304802.80
  7655.88        1.10282        304711.80
  7660.45        1.09704        302907.80
  7665.03        1.08762        306255.80
  7669.63        1.08166        304687.80
  7674.26        1.07433        304556.80
  7678.9        1.06804        304586.80
  7683.56        1.06021        304634.80
  7688.24        1.05384        304521.80
  7692.94        1.04648        304539.80
  7697.65        1.03711        304473.80
  7702.39        1.02994        304800.80
  7707.14        1.02194        306246.80
  7711.92        1.01355        306414.80
  7716.71        1.00617        306509.80
  7721.52       0.998603        306401.80
  7726.36       0.991886        306337.80
  7731.21       0.984505        306327.80
  7736.08       0.974313        302577.80
  7740.97       0.969503        310219.80
  7745.88       0.961649        306335.80
  7750.8       0.954504        306198.80
  7755.75       0.94626        306224.80
  7760.72       0.938223        306239.80
  7765.7       0.931169        306167.80
  7770.7       0.92474        306227.80
  7775.73       0.915938        305800.80
  7780.77       0.909324        306391.80
  7785.83       0.901646        306112.80
  7790.91       0.894668        306041.80
  7796.01       0.886561        306016.80
  7801.12       0.880287        305923.80
  7806.26       0.872611        305996.80
  7811.42       0.865749        305957.80
  7816.59       0.857932        305921.80
  7821.79       0.850668        305896.80
  7827       0.8438        305267.80
  7832.23       0.834949        306320.80
  7837.48       0.827457        305781.80
  7842.76       0.820336        305776.80
  7848.05       0.812009        305754.80
  7853.35       0.805687        305734.80
  7858.68       0.797024        305742.80
  7864.03       0.789869        305675.80
  7869.4       0.781371        305655.80
  7874.78       0.775014        305676.80
  7880.19       0.767482        305543.80
  7885.61       0.759485        305612.80
  7891.05       0.7517        305490.80
  7896.51       0.744513        305475.80
  7901.99       0.736129        305595.80
  7907.49       0.728367        305453.80
  7913.01       0.721359        305449.80
  7918.55       0.712981        305404.80
  7924.1       0.706828        305402.80
  7929.68       0.699383        305439.80
  7935.28       0.691948        305306.80
  7940.89       0.684334        304923.80
  7946.52       0.678042        305788.80
  7952.18       0.670416        305291.80
  7957.85       0.662489        305280.80
  7963.54       0.655597        305144.80
  7969.25       0.648335        305495.80