File: data/Fe/Fe3O4_rt_01.xdi
# XDI/1.0
# Column.1: energy eV
# Column.2: i0
# Column.3: itrans
# Beamline.name: APS 13-BM-D
# Beamline.notes: vert slits = 2mm (at 45m)
# Detector.I0: N2 15cm
# Detector.I1: N2 15cm
# Element.edge: K
# Element.symbol: Fe
# Mono.d_spacing: 3.13550
# Mono.name: Si(111)
# Mono.notes: unfocussed, detuned 50%
# Sample.formula: Fe3O4
# Sample.name: Fe3O4 powder  Room Temperature
# Sample.prep: powder on tape, 6 layers
# Sample.reference: none
# Sample.temperature: Room Temperature
# Scan.start_time: 2002-03-16 19:08:35
# ///
#    Note: mono d_spacing is nominal!
#     Energy drive values recorded (encoder used, not recorded)
#     348 E XMU I0
#-------------
#   energy   i0   itrans
    6962  302594  269023
    6972  304806  274854
    6982  304796  278856
    6992  304795  282584
    7002  304773  286565
    7012  304674  290612
    7022  304678  294382
    7032  304364  298162
    7042  304786  302441
    7052  304632  306351
    7062  304558  310200
    7072  304449  314086
    7082  304446  317710
    7092  304394  320687
    7092.5  304061  320466
    7093  303986  320339
    7093.5  303949  320543
    7094  303937  320601
    7094.5  303967  320793
    7095  303919  320805
    7095.5  303998  320745
    7096  304378  321410
    7096.5  305663  322893
    7097  305852  323201
    7097.5  305912  323271
    7098  305855  323195
    7098.5  305903  323266
    7099  305844  323239
    7099.5  305839  323497
    7100  305796  323456
    7100.5  305728  323496
    7101  305700  323272
    7101.5  305699  323523
    7102  305661  323383
    7102.5  305592  323351
    7103  305611  322949
    7103.5  305555  323068
    7104  305603  322979
    7104.5  305521  322841
    7105  305460  322496
    7105.5  305432  322387
    7106  305400  322340
    7106.5  305377  321877
    7107  305424  321625
    7107.5  305345  321090
    7108  305328  320542
    7108.5  305269  319967
    7109  305298  319108
    7109.5  305244  318011
    7110  305203  316279
    7110.5  305158  313387
    7111  305215  309135
    7111.5  305146  302514
    7112  305102  292570
    7112.5  305113  278087
    7113  305098  266690
    7113.5  305101  264903
    7114  305107  269171
    7114.5  305075  274299
    7115  305036  277054
    7115.5  304941  277703
    7116  304733  275944
    7116.5  304386  272101
    7117  304686  266434
    7117.5  305427  257549
    7118  305361  246228
    7118.5  304992  230509
    7119  304890  212249
    7119.5  304851  192510
    7120  304812  170552
    7120.5  304810  151155
    7121  304803  134333
    7121.5  304714  118432
    7122  304684  105051
    7122.5  304710  92127.5
    7123  304663  79349.5
    7123.5  304598  68464.5
    7124  304606  59135.5
    7124.5  304576  51490.5
    7125  304546  45691.5
    7125.5  304529  40931.5
    7126  304503  37152.5
    7126.5  304491  33904.5
    7127  304414  30354.5
    7127.5  305361  26839.5
    7128  305504  23543.5
    7128.5  306033  20559.5
    7129  306013  18343.5
    7129.5  306055  16971.5
    7130  305980  16365.5
    7130.5  305910  16373.5
    7131  305955  16747.5
    7131.5  305995  17358.5
    7132  305907  18045.5
    7132.88  305940  19786.5
    7133.78  305912  22051.5
    7134.71  305934  24147.5
    7135.65  305828  25606.5
    7136.61  305824  26617.5
    7137.58  305817  27638.5
    7138.58  305791  28991.5
    7139.6  305754  30532.5
    7140.63  305764  31922.5
    7141.69  305753  32637.5
    7142.76  305679  32516.5
    7143.86  305696  32243.5
    7144.97  305611  32186.5
    7146.1  305607  32837.5
    7147.25  305588  34637.5
    7148.42  305588  37417.5
    7149.61  305560  40270.5
    7150.81  305479  42560.5
    7152.04  305539  44304.5
    7153.29  305427  45812.5
    7154.55  305422  47228.5
    7155.83  305422  48854.5
    7157.14  305397  50358.5
    7158.46  305366  51368.5
    7159.8  305352  51796.5
    7161.16  305303  51566.5
    7162.54  305312  50997.5
    7163.94  305244  50308.5
    7165.35  305193  49320.5
    7166.79  305208  48102.5
    7168.25  305141  46571.5
    7169.72  305086  44818.5
    7171.21  304138  42884.5
    7172.73  306264  41310.5
    7174.26  305131  39590.5
    7175.81  305067  38299.5
    7177.38  305073  37123.5
    7178.97  305039  35829.5
    7180.57  305003  34855.5
    7182.2  304964  34385.5
    7183.85  304926  34434.5
    7185.51  304939  34839.5
    7187.2  304864  35177.5
    7188.9  304882  35654.5
    7190.62  304891  36209.5
    7192.36  304874  36924.5
    7194.13  304859  37941.5
    7195.91  304810  38986.5
    7197.7  304711  40050.5
    7199.52  304716  41202.5
    7201.36  304701  42391.5
    7203.22  304673  43547.5
    7205.09  305324  44620.5
    7206.98  305494  45302.5
    7208.9  306449  45764.5
    7210.83  306555  45785.5
    7212.78  306536  45646.5
    7214.75  306469  45300.5
    7216.74  306436  44695.5
    7218.75  306405  44052.5
    7220.78  306402  43361.5
    7222.82  306374  42847.5
    7224.89  306394  42387.5
    7226.98  306408  42367.5
    7229.08  306354  42630.5
    7231.2  306267  43082.5
    7233.34  306226  43874.5
    7235.51  306139  44754.5
    7237.69  306179  45845.5
    7239.89  306180  47202.5
    7242.1  306131  48620.5
    7244.34  306169  49877.5
    7246.6  306147  50556.5
    7248.87  306122  50687.5
    7251.17  306078  50271.5
    7253.48  306032  49511.5
    7255.81  306004  48548.5
    7258.17  306091  47550.5
    7260.54  305968  46564.5
    7262.93  305929  45804.5
    7265.34  305764  45165.5
    7267.77  305956  44988.5
    7270.21  306256  45062.5
    7272.68  305978  45158.5
    7275.16  305842  45373.5
    7277.67  305762  45682.5
    7280.19  305761  46107.5
    7282.73  305711  46607.5
    7285.3  305711  47485.5
    7287.88  305645  48577.5
    7290.48  305653  49692.5
    7293.1  305663  50657.5
    7295.73  305616  51326.5
    7298.39  305587  51976.5
    7301.07  305407  52578.5
    7303.76  304376  53065.5
    7306.48  306534  54064.5
    7309.21  305486  54410.5
    7311.96  305396  54637.5
    7314.74  305457  54601.5
    7317.53  305448  54333.5
    7320.34  305375  53887.5
    7323.16  305362  53488.5
    7326.01  305368  53219.5
    7328.88  305253  53024.5
    7331.77  305276  53203.5
    7334.67  305245  53630.5
    7337.6  305294  54176.5
    7340.54  305263  54707.5
    7343.5  305190  55435.5
    7346.48  305190  56254.5
    7349.48  305152  56997.5
    7352.5  305103  57540.5
    7355.54  305088  57999.5
    7358.6  304999  58456.5
    7361.68  305115  58686.5
    7364.77  304987  58978.5
    7367.89  304948  58995.5
    7371.02  304948  59133.5
    7374.18  304945  59415.5
    7377.35  304847  59891.5
    7380.54  304838  60338.5
    7383.75  304814  60780.5
    7386.98  304858  61126.5
    7390.23  304830  61348.5
    7393.49  304776  61552.5
    7396.78  304762  61643.5
    7400.09  304714  61986.5
    7403.41  304692  62382.5
    7406.76  304697  62909.5
    7410.12  304694  63463.5
    7413.5  304049  63939.5
    7416.9  305273  64722.5
    7420.32  304600  65161.5
    7423.76  304217  65682.5
    7427.22  304759  66287.5
    7430.7  304540  66856.5
    7434.19  304487  67329.5
    7437.71  304511  67962.5
    7441.24  304412  68283.5
    7444.8  304360  68540.5
    7448.37  304377  68725.5
    7451.96  304367  68950.5
    7455.57  304346  69246.5
    7459.2  304368  69768.5
    7462.85  304330  70315.5
    7466.52  304255  71101.5
    7470.21  304189  71819.5
    7473.91  304195  72333.5
    7477.64  304383  72788.5
    7481.39  304164  73056.5
    7485.15  304180  73619.5
    7488.93  304145  74112.5
    7492.73  304107  74662.5
    7496.55  304051  75109.5
    7500.39  303976  75633.5
    7504.25  303186  75908.5
    7508.13  304750  76671.5
    7512.03  303992  77076.5
    7515.94  303961  77561.5
    7519.88  303888  77998.5
    7523.83  303900  78589.5
    7527.81  303919  79071.5
    7531.8  303836  79669.5
    7535.81  303818  80228.5
    7539.84  303840  80846.5
    7543.89  303805  81431.5
    7547.96  303847  82142.5
    7552.05  303743  82768.5
    7556.16  303692  83532.5
    7560.28  303702  84172.5
    7564.43  303621  84700.5
    7568.59  303659  85273.5
    7572.77  304275  85864.5
    7576.98  305505  86870.5
    7581.2  305529  87430.5
    7585.44  305608  88115.5
    7589.7  305219  88546.5
    7593.98  305549  89184.5
    7598.27  305416  89670.5
    7602.59  305497  90157.5
    7606.93  305333  90851.5
    7611.28  305489  91452.5
    7615.66  305360  92143.5
    7620.05  305237  92868.5
    7624.46  305236  93562.5
    7628.89  305221  94324.5
    7633.34  305196  95200.5
    7637.81  305157  95861.5
    7642.3  305087  96670.5
    7646.81  305077  97443.5
    7651.34  305144  98209.5
    7655.88  305007  98911.5
    7660.45  302797  98846.5
    7665.03  306859  100877
    7669.63  305008  100945
    7674.26  304923  101607
    7678.9  305006  102309
    7683.56  305043  102902
    7688.24  304851  103636
    7692.94  304815  104231
    7697.65  304804  104953
    7702.39  304768  105593
    7707.14  304763  106347
    7711.92  304781  107231
    7716.71  304751  108086
    7721.52  304725  108827
    7726.36  304577  109738
    7731.21  304585  110578
    7736.08  301247  110425
    7740.97  308194  113691
    7745.88  304663  113291
    7750.8  304515  113921
    7755.75  304576  114804
    7760.72  304473  115512
    7765.7  304425  116559
    7770.7  304405  117323
    7775.73  304097  118076
    7780.77  304717  119041
    7785.83  304376  119782
    7790.91  304310  120565
    7796.01  304314  121522
    7801.12  304179  122368
    7806.26  304295  123286
    7811.42  304345  124296
    7816.59  304273  125182
    7821.79  304320  126090
    7827  303537  126841
    7832.23  304669  128255
    7837.48  304127  128908
    7842.76  304041  130084
    7848.05  304051  130993
    7853.35  304061  132065
    7858.68  304917  133435
    7864.03  305715  134793
    7869.4  306110  135933
    7874.78  306131  136955
    7880.19  306128  137943
    7885.61  306066  138884
    7891.05  306163  140005
    7896.51  306061  140928
    7901.99  306064  141939
    7907.49  306033  142880
    7913.01  305881  143877
    7918.55  305999  145036
    7924.1  305982  146162
    7929.68  305988  147223
    7935.28  305901  148261
    7940.89  305538  149142
    7946.52  306232  150581
    7952.18  305764  151486
    7957.85  305753  152685
    7963.54  305613  153932
    7969.25  305999  155168