File: data/Fe/Fe_metal_rt_02.xdi
# XDI/1.0
# Column.1: energy eV
# Column.2: i0
# Column.3: itrans
# Beamline.name: APS 20-BM-B
# Beamline.notes: vert slits = unknown
# Detector.I0: N2 15cm
# Detector.I1: N2 15cm
# Element.edge: K
# Element.symbol: Fe
# Mono.d_spacing: 3.13550
# Mono.name: Si(111)
# Mono.notes: unfocussed, detuned 50%
# Sample.formula: Fe
# Sample.name: Fe foil  Room Temperature
# Sample.prep: foil
# Sample.reference: none
# Sample.temperature: Room Temperature
# Scan.start_time: 2001-08-09 14:04:00
# ///
#    Note: mono d_spacing is nominal!
#     data from NXS school, 2001
#     412 E XMU I0
#-------------
#   energy   i0   itrans
    6913.79  408448  478167
    6918.75  406192  476865
    6923.73  405265  477148
    6928.78  402557  475285
    6933.87  329201  389574
    6938.73  417231  495319
    6943.9  414839  493888
    6948.79  413317  493389
    6953.97  412792  494180
    6958.82  412351  494893
    6963.88  412135  495951
    6968.93  411976  497072
    6973.83  411702  498062
    6978.94  411561  499250
    6983.75  411374  500321
    6988.84  411169  501423
    6993.86  411035  502584
    6998.9  410935  503764
    7003.9  410914  505072
    7008.78  410886  506208
    7013.84  410811  507480
    7018.86  410702  508644
    7023.87  410554  509743
    7028.87  410463  510849
    7033.71  410385  511999
    7038.79  410327  513223
    7043.8  410311  514354
    7048.78  410339  515526
    7053.9  410141  516464
    7058.64  410016  517328
    7063.74  409802  518119
    7068.72  409599  518811
    7073.6  409470  519461
    7078.76  409191  519810
    7083.63  408807  519795
    7088.5  408307  519030
    7093.58  406972  516704
    7098.42  400836  506947
    7103.46  404177  505743
    7103.95  410410  512745
    7104.38  411665  513581
    7104.76  412093  513246
    7105.05  412236  512647
    7105.39  412313  511620
    7105.86  412133  509940
    7106.28  411997  508291
    7106.64  411948  506543
    7106.96  411841  504845
    7107.33  411647  502688
    7107.83  411517  499118
    7108.26  411317  495663
    7108.69  411302  491673
    7109.06  411144  486929
    7109.34  411001  481699
    7109.74  410921  471180
    7110.26  410742  453788
    7110.67  410775  430590
    7111.02  410853  395404
    7111.34  410740  356137
    7111.74  410647  308321
    7112.22  410356  264713
    7112.65  410177  240434
    7113.05  410106  224365
    7113.39  409991  212291
    7113.69  409924  201228
    7114.1  409741  188522
    7114.56  409782  178799
    7114.96  409786  171945
    7115.29  409736  167811
    7115.61  409804  165143
    7116.08  409701  162702
    7116.54  409582  160353
    7116.96  409531  156931
    7117.35  409481  151673
    7117.69  409493  145505
    7118.02  409437  135722
    7118.5  409400  121167
    7118.96  409418  109519
    7119.35  409365  99158.8
    7119.66  409273  91089.8
    7120.01  409278  82851.8
    7120.5  409143  72490.8
    7120.92  408989  64874.8
    7121.33  408847  58815.8
    7121.74  408835  54209.8
    7122.03  408840  50894.8
    7122.38  408773  47087.8
    7122.84  408669  43773.8
    7123.28  408648  41254.8
    7123.64  408622  39180.8
    7123.95  408644  37595.8
    7124.31  408616  36026.8
    7124.8  408464  34232.8
    7125.23  408446  32817.8
    7125.64  408381  31573.8
    7126.02  408247  30586.8
    7126.34  408225  29574.8
    7126.73  408140  28182.8
    7127.22  408108  26671.8
    7127.67  407924  25267.8
    7128.02  407711  24002.8
    7128.33  407444  22793.8
    7128.72  407470  21370.8
    7129.22  407624  19768.8
    7129.62  407604  18643.8
    7130.01  407599  17709.8
    7130.38  407620  17067.8
    7130.69  407489  16642.8
    7131.11  407359  16383.8
    7131.53  407269  16559.8
    7131.94  407266  17051.8
    7132.29  407162  17733.8
    7132.6  407194  18510.8
    7133.05  407138  19722.8
    7133.54  407053  20985.8
    7133.93  407065  22090.8
    7134.31  407097  22971.8
    7134.68  407125  23736.8
    7135.01  407031  24475.8
    7135.47  406957  25316.8
    7135.92  407056  25799.8
    7136.35  407013  26096.8
    7136.68  406975  26227.8
    7136.99  406936  26251.8
    7137.46  406870  26125.8
    7137.92  406873  25860.8
    7138.3  406849  25517.8
    7138.67  406865  25155.8
    7139.01  406845  24789.8
    7139.37  406710  24319.8
    7139.8  406714  23782.8
    7140.21  406595  23415.8
    7140.62  406598  23111.8
    7140.94  406639  22918.8
    7141.27  406666  22791.8
    7141.76  406683  22745.8
    7142.21  406666  22792.8
    7142.58  406768  22899.8
    7142.96  406651  23029.8
    7143.3  406627  23151.8
    7143.71  406588  23312.8
    7144.16  406529  23439.8
    7144.58  406432  23477.8
    7144.98  406499  23458.8
    7145.29  406510  23362.8
    7145.62  406490  23176.8
    7146.13  406464  22821.8
    7146.55  406591  22462.8
    7146.94  406541  22034.8
    7147.28  406475  21643.8
    7147.63  406447  21252.8
    7147.8  406463  20989.8
    7148.99  408480  19766.3
    7150.09  410344  19033.9
    7151.34  412248  18661.6
    7152.59  414119  18389.3
    7153.79  415988  18342
    7155.08  417735  18602.7
    7156.2  419580  18969.3
    7157.53  421373  19346.9
    7158.81  423266  19532.3
    7160.08  425033  19645.7
    7161.54  426903  19892.9
    7162.83  428622  20271
    7164.22  430294  20759.9
    7165.6  431912  21177.6
    7166.94  433504  21492
    7168.46  435038  21813.3
    7169.96  436705  22264.3
    7171.34  438349  22906
    7172.84  439880  23895.5
    7174.35  441491  25154.6
    7175.82  443024  26589.5
    7177.33  444478  27986
    7179.03  445955  29141.2
    7180.6  447408  29560
    7182.09  448789  29509.5
    7183.74  449542  29078.6
    7185.43  421845  26398.3
    7187.18  451982  26942.6
    7188.77  455071  25817.5
    7190.42  456695  24573.9
    7192.18  458092  23282
    7193.96  459575  22662.6
    7195.82  461031  22997.7
    7197.52  462530  24060.4
    7199.25  463991  25529.5
    7201.13  465329  27462.2
    7203.03  466658  29744.5
    7204.96  467991  32038.2
    7206.82  469363  33430.4
    7208.67  470837  33064.1
    7210.52  471533  30600.2
    7212.47  473313  26536.8
    7214.54  474582  22214.9
    7216.54  475880  19081.5
    7218.5  477297  17276.4
    7220.6  478574  16747.8
    7222.69  479823  17601.7
    7224.71  481327  19663.9
    7226.8  482680  22439.6
    7228.87  483911  26003.7
    7231.05  485132  29832.2
    7233.18  486451  33654.1
    7235.29  487699  36365.3
    7237.47  489280  37878
    7239.68  491354  38026
    7241.98  467856  35069.5
    7244.18  489048  35010.2
    7246.41  490558  33578.4
    7248.71  493438  33010.9
    7251.08  494890  33342.8
    7253.41  496151  34327
    7255.68  497383  35158.5
    7258.14  498558  35033.4
    7260.48  499704  34195.6
    7262.84  500752  33366.2
    7265.27  501795  32759
    7267.72  502719  31963.2
    7270.14  503752  30641.7
    7272.57  504821  29213.6
    7275  501837  28129.7
    7277.55  506378  27878.1
    7280.02  507371  27213.9
    7282.56  508258  26287.9
    7285.25  508899  25379.2
    7287.82  508387  24974.8
    7290.35  462910  23444.7
    7292.98  514509  28163.9
    7295.64  514763  30944.3
    7298.25  467182  30567.1
    7300.96  515661  36281.1
    7303.69  517095  38277.3
    7306.41  518324  39598.9
    7309.05  519422  40177.7
    7311.81  520499  40224.7
    7314.67  521389  40268
    7317.39  522132  40482.6
    7320.19  517684  40301.4
    7323.02  524438  40958.5
    7325.94  524903  41031.8
    7328.78  525621  41292.3
    7331.67  521842  41689.1
    7334.45  528709  43116.1
    7337.43  529044  43661.4
    7340.4  529828  43323.8
    7343.28  530667  41986.5
    7346.18  531336  39935.5
    7349.3  518647  36936.6
    7352.28  533120  36289
    7355.22  533833  34942.6
    7358.4  534813  33757.4
    7361.45  535653  32921.5
    7364.41  536716  32633.7
    7367.67  537836  33088.1
    7370.74  538755  34370.8
    7373.84  538262  36700.7
    7377.14  539941  40454.7
    7380.21  540622  44461
    7383.45  540579  47682.5
    7386.71  544047  49265.1
    7389.81  544382  49118
    7393.15  544791  48328
    7396.42  545441  47761.3
    7399.72  546215  47760.7
    7403  547125  47979.3
    7406.31  547973  48054.1
    7409.68  548648  47972.1
    7412.98  549616  47981.3
    7416.49  550415  48185.6
    7419.76  551234  48722.1
    7423.32  552041  49754.8
    7426.66  552846  50551.7
    7430.15  551128  50494.8
    7433.68  551244  50274
    7437.16  541308  48674.4
    7440.6  552878  48520.9
    7444.23  554751  47268.7
    7447.69  555891  46400.6
    7451.37  556935  46076.6
    7454.85  557743  46185.8
    7458.52  558432  46479.2
    7462.13  559269  47118.8
    7465.77  560018  48267.5
    7469.35  560758  49778.3
    7473.19  561542  51415.3
    7476.72  562274  52642.5
    7480.59  563034  53801.8
    7484.32  563801  55176.3
    7488.02  564560  56650.9
    7491.9  565449  57893.7
    7495.56  566153  58422.6
    7499.51  566700  58303.7
    7503.31  567133  58032.9
    7507.06  567991  57944.3
    7511.06  568649  58197.8
    7514.79  569266  58638.4
    7518.83  569903  59070.2
    7522.75  570262  59274.1
    7526.5  570919  59316.2
    7530.62  571505  59247.4
    7534.54  572019  59421.7
    7538.52  572508  59841.1
    7542.52  572554  60281.8
    7546.67  569862  60334.5
    7550.54  548997  58089.4
    7554.68  575813  60659.3
    7558.83  576570  60220.5
    7562.77  577183  60037.7
    7567.01  577655  60318.1
    7571.18  578214  61143.6
    7575.17  578792  62418.3
    7579.37  579310  63853
    7583.58  579944  65170.9
    7587.87  580613  66077.9
    7591.94  580974  66555
    7596.28  581298  66815.3
    7600.57  581729  67098.6
    7604.82  582266  67624.1
    7608.97  582685  68398.7
    7613.27  583431  69217.5
    7617.68  584114  69646.3
    7622.05  584763  69755.3
    7626.4  585339  69891.3
    7630.69  585816  70344.5
    7635.3  586485  71208.8
    7639.64  585879  72004.2
    7644.14  587911  73084.7
    7648.5  588274  73750.4
    7652.92  588675  74234.1
    7657.56  589003  74567.9
    7662.19  589267  74708.9
    7666.87  589691  74748
    7671.44  577209  73116.1
    7676.05  590450  74757.4
    7680.67  591091  74904.8
    7685.53  591734  75364.3
    7690.24  592365  76093.9
    7695.06  592936  76948.6
    7699.74  592576  77568.4
    7704.57  593255  78339.3
    7709.3  593599  79143.3
    7714.09  594292  80049.4
    7719.02  594605  80898.6
    7723.89  594926  81559.9
    7728.85  595532  82116.3
    7733.73  596188  82585.8
    7738.71  596416  83167.4
    7743.6  596722  83745.1
    7748.6  597140  84290.8
    7753.53  597596  84766.7
    7758.58  598000  85425.7
    7763.51  598636  86228.8
    7768.55  598981  87076.9
    7773.52  599390  87880.2
    7778.59  599776  88568.5
    7783.6  599993  89193
    7788.78  600430  89816.5
    7793.81  600848  90365.1
    7799.04  600742  90776.8
    7804.12  601474  91239.6
    7809.34  601871  91680.5
    7814.42  602076  92119.5
    7819.71  602454  92665.6
    7824.84  602730  93230.7
    7830.13  603028  93782.9
    7835.28  603397  94358.3
    7840.64  603630  94960.7
    7845.88  603800  95592.2
    7851.27  603302  96167.8
    7856.52  604700  97002.4
    7861.94  596797  96479.2
    7867.22  605115  98586
    7872.69  594872  97710.9
    7878  607076  100456
    7883.44  606748  101149
    7888.78  606994  101889
    7894.31  606997  102548
    7899.7  607130  103279
    7905.27  607323  104053
    7910.69  607500  104776
    7916.26  607884  105525
    7921.81  607976  106204
    7927.4  608090  106895
    7932.92  608330  107565
    7938.56  608553  108149
    7944.11  608639  108686
    7949.78  608921  109298
    7955.35  609784  110093
    7960.97  609730  110724
    7966.58  607998  111026
    7972.28  610696  112096
    7978.13  610866  112697
    7983.91  610785  113339
    7989.7  611022  114116
    7995.37  611022  114842
    8001.21  611127  115555
    8006.87  611285  116299
    8012.77  611526  117134
    8018.5  611756  117925
    8024.5  612107  118801
    8030.29  612256  119608
    8036.27  612266  120420
    8042.09  612442  121217
    8048.03  612487  122099
    8053.84  612544  122916
    8059.73  612584  123789
    8065.75  612731  124665
    8071.84  612355  125435
    8077.91  612870  126354
    8083.78  613343  127212
    8085.79  613265  127396