File: data/Fe/fen_rt.xdi
# XDI/1.0 GSE/1.0
# Column.1: energy eV
# Column.2: mutrans
# Column.3: i0
# Element.edge: K
# Element.symbol: Fe
# Scan.edge_energy: 7112.
# Mono.name: Si 111
# Mono.d_spacing: 3.13550
# Beamline.name: 13-BM-D
# Beamline.collimation: none
# Beamline.focusing: no
# Beamline.harmonic_rejection: detuned 50%
# Facility.name: APS
# Facility.energy: 7.00 GeV
# Facility.xray_source: APS bending magnet
# Scan.start_time: 2002-03-16T17:50:01
# Detector.I0: 15cm  N2
# Detector.I1: 15cm  N2
# Sample.name: FeN
# Sample.prep: powder on tape, 5 layers
# ///
# room temperature
# measured at beamline 13-BM-D
# vert slits = 2mm (at 45m)
#----
#   energy       mutrans            i0
  6962      -0.39452        302897.20
  6972      -0.410043        304569.20
  6982      -0.423987        304504.20
  6992      -0.43863        304514.20
  7002      -0.45328        304407.20
  7012      -0.467198        304369.20
  7022      -0.480747        304358.20
  7032      -0.494714        304033.20
  7042      -0.508376        304549.20
  7052      -0.521011        304135.20
  7062      -0.532476        304266.20
  7072      -0.544159        304132.20
  7082      -0.553513        304163.20
  7092      -0.557558        304151.20
  7092.5      -0.557304        303770.20
  7093      -0.556586        303646.20
  7093.5      -0.557046        303717.20
  7094      -0.557146        303709.20
  7094.5      -0.557356        303632.20
  7095      -0.556869        303665.20
  7095.5      -0.556705        303530.20
  7096      -0.556029        303509.20
  7096.5      -0.555116        303490.20
  7097      -0.554917        303541.20
  7097.5      -0.554778        303534.20
  7098      -0.55423        303471.20
  7098.5      -0.55304        303466.20
  7099      -0.553521        303365.20
  7099.5      -0.551531        303521.20
  7100      -0.550309        303402.20
  7100.5      -0.549849        303347.20
  7101      -0.547981        303327.20
  7101.5      -0.546599        303315.20
  7102      -0.54533        303276.20
  7102.5      -0.543221        303348.20
  7103      -0.541362        303231.20
  7103.5      -0.539073        303205.20
  7104      -0.537089        303106.20
  7104.5      -0.533336        303044.20
  7105      -0.529337        303620.20
  7105.5      -0.524634        304831.20
  7106      -0.520583        305043.20
  7106.5      -0.514642        305012.20
  7107      -0.50813        305045.20
  7107.5      -0.499194        304889.20
  7108      -0.487188        304891.20
  7108.5      -0.471847        304901.20
  7109      -0.449304        304858.20
  7109.5      -0.412434        304782.20
  7110      -0.347853        304812.20
  7110.5      -0.240651        304785.20
  7111      -0.0790474    304818.20
  7111.5       0.0813303    304759.20
  7112       0.193362        304766.20
  7112.5       0.283435        304670.20
  7113       0.36889        304692.20
  7113.5       0.460815        304652.20
  7114       0.570351        304631.20
  7114.5       0.68762        304610.20
  7115       0.78034        304537.20
  7115.5       0.861633        304525.20
  7116       0.926213        304229.20
  7116.5       0.970353        303962.20
  7117        1.01517        304415.20
  7117.5        1.07448        305040.20
  7118        1.13561        304851.20
  7118.5        1.21196        304552.20
  7119        1.29177        304402.20
  7119.5        1.38091        304389.20
  7120        1.47254        304313.20
  7120.5        1.55663        304379.20
  7121        1.63788        304377.20
  7121.5        1.71458        304335.20
  7122        1.78476        304265.20
  7122.5        1.85486        304268.20
  7123        1.92176        304231.20
  7123.5        1.97966        304159.20
  7124        2.03422        304141.20
  7124.5        2.08437        304114.20
  7125        2.1345        304127.20
  7125.5        2.18825        304125.20
  7126        2.23933        304048.20
  7126.5        2.29236        304057.20
  7127        2.34314        304035.20
  7127.5        2.38917        303931.20
  7128        2.43791        303963.20
  7128.5        2.48276        303910.20
  7129        2.51517        303852.20
  7129.5        2.54438        303830.20
  7130        2.56521        303852.20
  7130.5        2.57834        303797.20
  7131        2.58266        303751.20
  7131.5        2.5829        303795.20
  7132        2.58004        303761.20
  7132.88        2.5575        303791.20
  7133.78        2.51566        303730.20
  7134.71        2.47314        303692.20
  7135.65        2.43633        303748.20
  7136.61        2.40816        303722.20
  7137.58        2.37562        303725.20
  7138.58        2.34969        303675.20
  7139.6        2.32741        303667.20
  7140.63        2.31559        304507.20
  7141.69        2.30516        305378.20
  7142.76        2.30177        305522.20
  7143.86        2.30898        305550.20
  7144.97        2.32425        305633.20
  7146.1        2.34799        305587.20
  7147.25        2.37666        305632.20
  7148.42        2.40344        305523.20
  7149.61        2.42382        305436.20
  7150.81        2.43624        305434.20
  7152.04        2.43574        305420.20
  7153.29        2.42175        305388.20
  7154.55        2.40127        305290.20
  7155.83        2.37224        305337.20
  7157.14        2.34376        305340.20
  7158.46        2.31586        305277.20
  7159.8        2.28664        305286.20
  7161.16        2.25807        305248.20
  7162.54        2.2277        305191.20
  7163.94        2.19796        305190.20
  7165.35        2.17234        305144.20
  7166.79        2.15285        305099.20
  7168.25        2.14277        305092.20
  7169.72        2.13932        304974.20
  7171.21        2.13854        304057.20
  7172.73        2.15411        306122.20
  7174.26        2.17081        305038.20
  7175.81        2.18797        304931.20
  7177.38        2.20587        304990.20
  7178.97        2.22839        304936.20
  7180.57        2.25193        304909.20
  7182.2        2.27817        304867.20
  7183.85        2.30582        304866.20
  7185.51        2.33227        304858.20
  7187.2        2.35173        304851.20
  7188.9        2.36798        304701.20
  7190.62        2.38587        304713.20
  7192.36        2.39641        304767.20
  7194.13        2.40296        304690.20
  7195.91        2.40023        304708.20
  7197.7        2.39256        304644.20
  7199.52        2.37263        304609.20
  7201.36        2.3477        304640.20
  7203.22        2.31792        304527.20
  7205.09        2.28679        304485.20
  7206.98        2.25931        304534.20
  7208.9        2.23431        304497.20
  7210.83        2.20852        304482.20
  7212.78        2.18604        304468.20
  7214.75        2.16693        304457.20
  7216.74        2.15571        304386.20
  7218.75        2.15157        304416.20
  7220.78        2.15105        304327.20
  7222.82        2.15692        304296.20
  7224.89        2.16388        304331.20
  7226.98        2.17071        304296.20
  7229.08        2.17723        304267.20
  7231.2        2.17748        304175.20
  7233.34        2.17537        304169.20
  7235.51        2.17234        304179.20
  7237.69        2.17531        304142.20
  7239.89        2.18077        304665.20
  7242.1        2.19283        305709.20
  7244.34        2.21235        306050.20
  7246.6        2.23292        306136.20
  7248.87        2.24709        305953.20
  7251.17        2.25559        305912.20
  7253.48        2.25842        305938.20
  7255.81        2.25318        305898.20
  7258.17        2.23977        305864.20
  7260.54        2.21848        305838.20
  7262.93        2.18913        305812.20
  7265.34        2.15538        305466.20
  7267.77        2.12309        306141.20
  7270.21        2.09912        306044.20
  7272.68        2.07817        305780.20
  7275.16        2.0676        305695.20
  7277.67        2.06824        305653.20
  7280.19        2.07664        305615.20
  7282.73        2.0849        305544.20
  7285.3        2.0896        305660.20
  7287.88        2.09228        305629.20
  7290.48        2.08906        305575.20
  7293.1        2.08718        305540.20
  7295.73        2.08478        305501.20
  7298.39        2.08481        305428.20
  7301.07        2.0857        305356.20
  7303.76        2.08415        304616.20
  7306.48        2.09095        306218.20
  7309.21        2.09638        305404.20
  7311.96        2.10265        305302.20
  7314.74        2.11032        305324.20
  7317.53        2.1174        305302.20
  7320.34        2.11502        305296.20
  7323.16        2.11119        305311.20
  7326.01        2.1003        305222.20
  7328.88        2.08324        305208.20
  7331.77        2.05991        305165.20
  7334.67        2.03672        305109.20
  7337.6        2.01379        305123.20
  7340.54        1.99442        305101.20
  7343.5        1.97758        305073.20
  7346.48        1.96522        305093.20
  7349.48        1.95772        305067.20
  7352.5        1.95394        304960.20
  7355.54        1.95348        304961.20
  7358.6        1.95223        304917.20
  7361.68        1.95122        304885.20
  7364.77        1.95259        304879.20
  7367.89        1.95448        304842.20
  7371.02        1.95839        304889.20
  7374.18        1.95954        304855.20
  7377.35        1.9564        304853.20
  7380.54        1.95334        304721.20
  7383.75        1.95025        304737.20
  7386.98        1.94661        304652.20
  7390.23        1.94337        304726.20
  7393.49        1.9385        304643.20
  7396.78        1.936        304609.20
  7400.09        1.93148        304596.20
  7403.41        1.92659        304586.20
  7406.76        1.91971        305185.20
  7410.12        1.91368        305940.20
  7413.5        1.90116        305633.20
  7416.9        1.89282        307099.20
  7420.32        1.88654        306410.20
  7423.76        1.88063        306110.20
  7427.22        1.87074        306521.20
  7430.7        1.86261        306243.20
  7434.19        1.85331        306292.20
  7437.71        1.84228        306170.20
  7441.24        1.83116        306221.20
  7444.8        1.8237        306218.20
  7448.37        1.81556        306187.20
  7451.96        1.80836        306157.20
  7455.57        1.80359        306171.20
  7459.2        1.79959        306188.20
  7462.85        1.79698        306071.20
  7466.52        1.7938        306048.20
  7470.21        1.79028        306071.20
  7473.91        1.78726        305941.20
  7477.64        1.78654        306140.20
  7481.39        1.78191        305907.20
  7485.15        1.77946        305888.20
  7488.93        1.77481        305867.20
  7492.73        1.77094        305783.20
  7496.55        1.76401        305808.20
  7500.39        1.75711        305797.20
  7504.25        1.74566        304741.20
  7508.13        1.73709        306433.20
  7512.03        1.72851        305741.20
  7515.94        1.72052        305734.20
  7519.88        1.71231        305694.20
  7523.83        1.70555        305611.20
  7527.81        1.69944        305708.20
  7531.8        1.69173        305652.20
  7535.81        1.68524        305616.20
  7539.84        1.67618        305619.20
  7543.89        1.67282        305526.20
  7547.96        1.66542        305510.20
  7552.05        1.65907        305524.20
  7556.16        1.65381        305376.20
  7560.28        1.64774        305455.20
  7564.43        1.64278        305510.20
  7568.59        1.63891        305447.20
  7572.77        1.63335        305421.20
  7576.98        1.62828        305392.20
  7581.2        1.6232        305385.20
  7585.44        1.61573        305357.20
  7589.7        1.60982        305121.20
  7593.98        1.60003        305404.20
  7598.27        1.59403        305256.20
  7602.59        1.58603        305231.20
  7606.93        1.57855        305201.20
  7611.28        1.57078        305283.20
  7615.66        1.56246        305128.20
  7620.05        1.55637        305130.20
  7624.46        1.5497        305042.20
  7628.89        1.54275        305104.20
  7633.34        1.53644        305017.20
  7637.81        1.53088        305008.20
  7642.3        1.5219        304917.20
  7646.81        1.51574        304883.20
  7651.34        1.50744        304836.20
  7655.88        1.50175        304806.20
  7660.45        1.48716        303035.20
  7665.03        1.48635        306243.20
  7669.63        1.48176        304822.20
  7674.26        1.47429        304699.20
  7678.9        1.46851        304727.20
  7683.56        1.46242        304924.20
  7688.24        1.45446        304667.20
  7692.94        1.44865        304632.20
  7697.65        1.44431        304682.20
  7702.39        1.437        304543.20
  7707.14        1.43205        304601.20
  7711.92        1.4251        304561.20
  7716.71        1.41845        304565.20
  7721.52        1.41325        304457.20
  7726.36        1.40606        304402.20
  7731.21        1.39874        304304.20
  7736.08        1.3932        300767.20
  7740.97        1.38145        308151.20
  7745.88        1.37939        304444.20
  7750.8        1.36995        304211.20
  7755.75        1.36372        304325.20
  7760.72        1.35418        304277.20
  7765.7        1.34825        304293.20
  7770.7        1.33897        304240.20
  7775.73        1.33319        303906.20
  7780.77        1.32432        304528.20
  7785.83        1.31754        304122.20
  7790.91        1.31091        304128.20
  7796.01        1.30365        304153.20
  7801.12        1.29675        304066.20
  7806.26        1.28938        304145.20
  7811.42        1.28195        304032.20
  7816.59        1.27634        303988.20
  7821.79        1.26989        304032.20
  7827        1.26177        303462.20
  7832.23        1.25549        304424.20
  7837.48        1.24849        303992.20
  7842.76        1.24183        303856.20
  7848.05        1.23468        303933.20
  7853.35        1.22795        303790.20
  7858.68        1.22087        303803.20
  7864.03        1.21451        303958.20
  7869.4        1.2063        303799.20
  7874.78        1.19968        303759.20
  7880.19        1.19305        303681.20
  7885.61        1.18529        303702.20
  7891.05        1.17811        303647.20
  7896.51        1.17243        303582.20
  7901.99        1.16499        303623.20
  7907.49        1.15809        303648.20
  7913.01        1.15124        303622.20
  7918.55        1.14335        303505.20
  7924.1        1.13627        303539.20
  7929.68        1.12829        303479.20
  7935.28        1.12058        303377.20
  7940.89        1.11398        303080.20
  7946.52        1.10649        304074.20
  7952.18        1.10041        304196.20
  7957.85        1.09118        304171.20
  7963.54        1.08412        304098.20
  7969.25        1.07618        304239.20