File: data/Fe/FeO_rt_01.xdi
# XDI/1.0
# Column.1: energy eV
# Column.2: i0
# Column.3: itrans
# Beamline.name: APS 20-BM
# Beamline.notes: vert slits = unknown
# Detector.I0: N2 15cm
# Detector.I1: N2 15cm
# Element.edge: K
# Element.symbol: Fe
# Mono.d_spacing: 3.13550
# Mono.name: Si(111)
# Mono.notes: unfocussed, detuned 50%
# Sample.formula: FeO
# Sample.name: FeO powder  Room Temperature
# Sample.prep: powder on tape, 4 layers
# Sample.reference: none
# Sample.temperature: Room Temperature
# Scan.start_time: 2001-08-10 11:10:00
# ///
#    Note: mono d_spacing is nominal!
#     data from NXS school, 2001
#     412 E XMU I0
#-------------
#   energy   i0   itrans
    6911.77  280101  290366
    6916.87  278863  289977
    6921.7  278149  290136
    6926.83  277292  290103
    6931.74  265707  278595
    6936.99  286669  301917
    6941.79  285989  301961
    6946.88  284661  301519
    6951.92  284411  302120
    6956.94  283577  302167
    6961.96  283824  303265
    6966.87  283568  303950
    6971.92  283397  304638
    6976.86  283310  305481
    6981.99  283214  306229
    6986.88  283061  306938
    6991.93  282971  307721
    6996.91  283022  308670
    7001.85  282885  309435
    7006.99  282810  310281
    7011.84  282732  311023
    7016.95  282596  311819
    7021.87  282484  312561
    7026.88  282375  313268
    7031.97  282225  314010
    7036.84  282119  314744
    7041.9  282087  315530
    7046.86  282034  316357
    7051.83  282011  317160
    7056.9  281905  317924
    7061.84  281847  318600
    7066.75  281772  319289
    7071.81  281634  319901
    7076.75  281516  320463
    7081.69  281309  320876
    7086.79  281051  321085
    7091.53  280416  320763
    7096.56  277908  317955
    7101.57  240033  275002
    7101.94  247919  284665
    7102.28  257073  295257
    7102.7  270033  309588
    7103.19  279482  319436
    7103.64  282387  322348
    7104  283089  322984
    7104.28  283283  323081
    7104.62  283337  323013
    7105.1  283379  322744
    7105.52  283327  322572
    7105.88  283280  322305
    7106.24  283187  321923
    7106.57  283067  321655
    7107.06  283049  321220
    7107.53  282911  320690
    7107.94  282903  320311
    7108.32  282797  319777
    7108.6  282677  319226
    7108.97  282618  318402
    7109.51  282510  317071
    7109.94  282431  315273
    7110.28  282346  312986
    7110.62  282332  310103
    7111.01  282210  306109
    7111.47  282123  302147
    7111.92  282115  299642
    7112.36  282037  297501
    7112.67  281994  295744
    7112.94  281937  293845
    7113.38  281871  291801
    7113.83  281825  290459
    7114.25  281778  288513
    7114.58  281795  285696
    7114.9  281840  282531
    7115.32  281698  276967
    7115.81  281660  269041
    7116.24  281583  261185
    7116.67  281567  252213
    7116.97  281577  243746
    7117.26  281547  232641
    7117.78  281547  216149
    7118.24  281500  201490
    7118.63  281460  187785
    7118.97  281469  176633
    7119.29  281427  167426
    7119.77  281425  155078
    7120.21  281361  145635
    7120.64  281376  137638
    7121.03  281330  130669
    7121.32  281224  124691
    7121.65  281254  116505
    7122.1  281217  106623
    7122.55  281234  97343.2
    7122.93  281186  88855.2
    7123.25  281156  82365.2
    7123.59  281139  76126.2
    7124.08  281237  70064.2
    7124.54  281092  66014.2
    7124.97  281111  63251.2
    7125.34  281108  61151.2
    7125.64  281113  59209.2
    7125.99  281001  56427.2
    7126.53  281104  52991.2
    7126.97  280979  49908.2
    7127.32  280857  47418.2
    7127.63  280685  45666.2
    7128  280560  44324.2
    7128.51  280587  44137.2
    7128.92  280673  45222.2
    7129.36  280602  47220.2
    7129.71  280574  49581.2
    7129.98  280588  52250.2
    7130.39  280512  56763.2
    7130.85  280368  60901.2
    7131.29  280353  64800.2
    7131.61  280324  68116.2
    7131.93  280355  70857.2
    7132.33  280358  73781.2
    7132.84  280325  76676.2
    7133.25  280340  78639.2
    7133.66  280358  80182.2
    7134.01  280338  81455.2
    7134.31  280400  82685.2
    7134.77  280376  84493.2
    7135.26  280369  86031.2
    7135.68  280380  87382.2
    7135.99  280318  88463.2
    7136.31  280310  89385.2
    7136.76  280299  90385.2
    7137.23  280348  91158.2
    7137.64  280287  91499.2
    7138.05  280265  91596.2
    7138.37  280233  91505.2
    7138.68  280231  91135.2
    7139.1  280223  90279.2
    7139.59  280226  89172.2
    7139.97  280223  88050.2
    7140.3  280225  86871.2
    7140.6  280199  85700.2
    7141.1  280261  84138.2
    7141.55  280234  83056.2
    7141.97  280277  82322.2
    7142.35  280266  81973.2
    7142.68  280215  81859.2
    7143.02  280222  82024.2
    7143.5  280148  82681.2
    7143.97  280235  83590.2
    7144.37  280259  84631.2
    7144.66  280184  85535.2
    7145.01  280209  86716.2
    7145.51  280141  88270.2
    7145.93  280171  89686.2
    7146.13  280202  90325.2
    7147.13  281607  93749.1
    7148.38  282954  97323.4
    7149.48  284295  99864.4
    7150.77  285557  101888
    7151.97  286899  103420
    7153.2  288155  104645
    7154.54  289438  105483
    7155.71  290658  105780
    7157.06  291973  105466
    7158.36  293176  104643
    7159.68  294405  103783
    7161.13  295628  102666
    7162.38  296860  101657
    7163.86  297950  99713.7
    7165.24  299144  96455
    7166.57  300243  92691.7
    7168.13  301311  88956.8
    7169.65  302428  86047.3
    7171.05  303496  84143
    7172.58  304599  83137.2
    7174.16  305728  82910.7
    7175.68  306770  83477.5
    7177.21  307837  84982.7
    7178.93  308896  87575.2
    7180.55  309864  90369
    7182.12  310683  92962.1
    7183.68  310947  95184.5
    7185.46  291081  90887.2
    7187.23  313205  99755.3
    7188.93  315023  102205
    7190.59  316212  104251
    7192.31  317247  106074
    7194.16  318317  107389
    7196.03  319271  107904
    7197.85  320242  107710
    7199.58  321266  107188
    7201.35  322266  106610
    7203.32  323201  106224
    7205.35  324151  106428
    7207.25  325151  107009
    7209.15  325885  107485
    7211.12  326697  107723
    7213.07  327663  107680
    7215.04  328640  107255
    7217.07  329533  106548
    7219.03  330474  105887
    7221.2  331416  105660
    7223.33  332370  106284
    7225.45  333202  107602
    7227.53  334086  109399
    7229.69  334967  111554
    7231.91  335961  113909
    7234.08  336864  116076
    7236.24  337816  117648
    7238.49  338887  118286
    7240.78  329087  113701
    7243.02  335643  114705
    7245.23  339366  114222
    7247.52  338137  112540
    7249.89  341598  113091
    7252.23  342507  113497
    7254.44  343352  114169
    7256.89  344217  114896
    7259.21  344988  115310
    7261.66  345766  115437
    7263.94  346708  115466
    7266.39  347433  115488
    7268.9  348204  115646
    7271.37  348895  116002
    7273.92  349892  116832
    7276.51  349789  117644
    7279.08  350767  119156
    7281.49  351365  120790
    7284.13  351946  122725
    7286.68  352112  124601
    7289.18  350399  125688
    7291.9  350984  127509
    7294.65  355958  130305
    7297.36  355658  130613
    7299.9  353998  129967
    7302.57  357608  130745
    7305.32  358382  130289
    7308.1  358970  129742
    7310.93  359730  129280
    7313.65  360320  129013
    7316.34  360880  128969
    7319.17  361473  129149
    7322.11  362091  129493
    7325.02  363008  130082
    7327.71  363583  130655
    7330.6  363832  131253
    7333.67  364127  132010
    7336.42  365954  133359
    7339.3  366482  134322
    7342.4  366602  135263
    7345.32  367318  136353
    7348.29  367739  137268
    7351.33  369124  138438
    7354.38  369536  139080
    7357.41  370157  139751
    7360.5  370776  140490
    7363.6  371270  141255
    7366.71  371864  142068
    7369.87  372500  142873
    7372.99  370256  142496
    7376.13  373438  144012
    7379.47  374052  144572
    7382.56  374262  144847
    7385.67  363252  140764
    7389.12  376617  145975
    7392.25  376942  146240
    7395.59  377380  146633
    7398.92  377900  147152
    7402.06  378454  147813
    7405.55  378947  148674
    7408.75  379532  149617
    7412.29  380039  150727
    7415.62  380721  151881
    7419.01  381177  153026
    7422.41  381666  154012
    7425.93  382146  154865
    7429.33  381763  155280
    7432.83  383357  156330
    7436.38  348599  141979
    7439.77  382052  156641
    7443.45  383835  157860
    7446.93  384549  158491
    7450.55  385209  159108
    7454.19  385779  159627
    7457.67  386364  160133
    7461.4  386959  160648
    7464.98  387540  161183
    7468.74  388016  161783
    7472.33  388636  162483
    7476.02  389021  163193
    7479.61  389703  164033
    7483.61  390137  164930
    7487.23  390579  165941
    7491.05  390942  166941
    7494.81  391505  168040
    7498.51  391929  168997
    7502.57  392494  169960
    7506.25  392869  170738
    7510.16  393327  171469
    7514.07  393787  172192
    7517.82  394068  172845
    7521.94  394611  173640
    7525.81  394923  174341
    7529.65  395401  175119
    7533.64  395801  175862
    7537.68  396150  176598
    7541.57  396333  177183
    7545.75  395707  177484
    7549.74  364256  164131
    7553.58  398843  179841
    7557.85  399380  180643
    7561.93  399600  181267
    7565.87  399899  181871
    7570.21  400320  182699
    7574.33  400728  183545
    7578.46  401116  184411
    7582.46  401530  185277
    7586.9  401801  186147
    7591.07  402151  187023
    7595.2  402537  187865
    7599.52  403053  188763
    7603.82  403450  189677
    7608.16  403752  190523
    7612.29  404235  191391
    7616.59  404634  192276
    7621.03  404951  193094
    7625.45  405279  193901
    7629.76  403381  193644
    7634.1  406016  195565
    7638.57  405550  195935
    7643.11  403034  195487
    7647.68  407117  197998
    7652.19  407433  198803
    7656.71  407801  199640
    7661.17  408157  200432
    7665.92  408571  201354
    7670.53  408855  202259
    7675.25  409370  203243
    7679.87  409507  204036
    7684.6  409950  204991
    7689.25  410260  205901
    7693.97  410693  206880
    7698.81  407884  206200
    7703.62  411286  208684
    7708.48  411590  209638
    7713.27  411934  210569
    7718.16  412428  211560
    7722.96  412581  212374
    7727.83  412874  213301
    7732.58  413055  214139
    7737.58  413277  215016
    7742.52  413632  215946
    7747.57  413908  216814
    7752.52  414322  217732
    7757.58  414643  218691
    7762.54  414763  219531
    7767.63  415049  220490
    7772.63  415498  221524
    7777.7  415754  222487
    7782.72  415908  223359
    7787.8  416134  224298
    7792.83  416358  225225
    7797.93  416653  226191
    7803.02  416880  227106
    7808.17  417194  228109
    7813.3  417389  229033
    7818.47  417525  229990
    7823.65  417789  230940
    7828.85  418077  231902
    7834.1  418265  232857
    7839.34  418453  233797
    7844.66  418616  234695
    7849.95  418646  235585
    7855.29  418979  236620
    7860.69  418870  237403
    7866.02  419648  238671
    7871.44  418724  238963
    7876.79  420799  241023
    7882.24  420610  241836
    7887.59  420577  242628
    7893.1  420654  243541
    7898.5  420822  244523
    7904.02  421015  245551
    7909.39  421114  246428
    7914.97  421346  247454
    7920.37  421607  248436
    7925.95  421833  249467
    7931.38  421911  250431
    7936.99  422122  251401
    7942.46  422302  252385
    7948.17  422438  253354
    7953.75  418065  251443
    7959.54  422810  255398
    7965.18  422593  256150
    7970.99  423492  257618
    7976.62  414640  253194
    7982.4  423564  259464
    7988.09  423691  260482
    7993.82  423840  261482
    7999.48  423865  262405
    8005.25  424050  263464
    8011.17  424291  264565
    8017.04  424479  265600
    8023.01  424529  266632
    8028.8  424411  267545
    8034.68  424581  268624
    8040.41  424435  269451
    8046.4  424702  270586
    8052.36  424750  271605
    8058.38  424880  272675
    8064.28  425124  273806
    8070.2  423374  273603
    8076.09  425238  275817
    8082.07  425336  276831
    8084.09  425436  277186