File: data/Fe/feo_rt1.xdi
# XDI/1.0
# Column.1: energy eV
# Column.2: mutrans
# Column.3: i0
# Element.edge: K
# Element.symbol: Fe
# Scan.start_time: 2001-08-10T11:10:00
# Mono.name: Si 111
# Mono.d_spacing: 3.13553
# Beamline.name: 20BM
# Beamline.focusing: no
# Beamline.harmonic_rejection: detuned
# Detector.I0:  N2 15cm
# Detector.I1:  N2 15cm
# Sample.name: FeO
# Sample.notes: room temperature, powder on tape, 4 layers
# ///
#  data from NXS school, 2001
#------------------------
#   energy     mutrans       i0
  6911.77      -0.0359926    280101.00
  6916.87      -0.0390816    278863.00
  6921.7      -0.0421935    278149.00
  6926.83      -0.0451656    277292.00
  6931.74      -0.0473656    265707.00
  6936.99      -0.0518245    286669.00
  6941.79      -0.0543451    285989.00
  6946.88      -0.0575347    284661.00
  6951.92      -0.0604045    284411.00
  6956.94      -0.0634968    283577.00
  6961.96      -0.0662533    283824.00
  6966.87      -0.0694119    283568.00
  6971.92      -0.0722761    283397.00
  6976.86      -0.0753465    283310.00
  6981.99      -0.078131    283214.00
  6986.88      -0.080984    283061.00
  6991.93      -0.0838497    282971.00
  6996.91      -0.0867487    283022.00
  7001.85      -0.0897082    282885.00
  7006.99      -0.0927036    282810.00
  7011.84      -0.095368    282732.00
  7016.95      -0.0984052    282596.00
  7021.87      -0.101178        282484.00
  7026.88      -0.103824        282375.00
  7031.97      -0.106721        282225.00
  7036.84      -0.109431        282119.00
  7041.9      -0.112039        282087.00
  7046.86      -0.114844        282034.00
  7051.83      -0.117461        282011.00
  7056.9      -0.120243        281905.00
  7061.84      -0.122573        281847.00
  7066.75      -0.124999        281772.00
  7071.81      -0.127404        281634.00
  7076.75      -0.129578        281516.00
  7081.69      -0.131602        281309.00
  7086.79      -0.13317        281051.00
  7091.53      -0.134429        280416.00
  7096.56      -0.13462        277908.00
  7101.57      -0.136003        240033.00
  7101.94      -0.138212        247919.00
  7102.28      -0.138487        257073.00
  7102.7      -0.136699        270033.00
  7103.19      -0.13362        279482.00
  7103.64      -0.132354        282387.00
  7104      -0.131842        283089.00
  7104.28      -0.131457        283283.00
  7104.62      -0.131056        283337.00
  7105.1      -0.130075        283379.00
  7105.52      -0.129725        283327.00
  7105.88      -0.129063        283280.00
  7106.24      -0.128206        283187.00
  7106.57      -0.127797        283067.00
  7107.06      -0.126507        283049.00
  7107.53      -0.125343        282911.00
  7107.94      -0.124189        282903.00
  7108.32      -0.122895        282797.00
  7108.6      -0.121595        282677.00
  7108.97      -0.119219        282618.00
  7109.51      -0.115412        282510.00
  7109.94      -0.110005        282431.00
  7110.28      -0.103026        282346.00
  7110.62      -0.0938214    282332.00
  7111.01      -0.0812904    282210.00
  7111.47      -0.0685711    282123.00
  7111.92      -0.0602743    282115.00
  7112.36      -0.0533799    282037.00
  7112.67      -0.0476091    281994.00
  7112.94      -0.0413694    281937.00
  7113.38      -0.0346232    281871.00
  7113.83      -0.0301768    281825.00
  7114.25      -0.0236213    281778.00
  7114.58      -0.0137491    281795.00
  7114.9      -0.00244941    281840.00
  7115.32       0.0169365    281698.00
  7115.81       0.0458362    281660.00
  7116.24       0.0751975    281583.00
  7116.67       0.110096        281567.00
  7116.97       0.144278        281577.00
  7117.26       0.190802        281547.00
  7117.78       0.26433        281547.00
  7118.24       0.334392        281500.00
  7118.63       0.404692        281460.00
  7118.97       0.465947        281469.00
  7119.29       0.51933        281427.00
  7119.77       0.595936        281425.00
  7120.21       0.658534        281361.00
  7120.64       0.715063        281376.00
  7121.03       0.766859        281330.00
  7121.32       0.813311        281224.00
  7121.65       0.881322        281254.00
  7122.1       0.969825        281217.00
  7122.55        1.06094        281234.00
  7122.93        1.15201        281186.00
  7123.25        1.22775        281156.00
  7123.59        1.30646        281139.00
  7124.08        1.38979        281237.00
  7124.54        1.44881        281092.00
  7124.97        1.49164        281111.00
  7125.34        1.52539        281108.00
  7125.64        1.55768        281113.00
  7125.99        1.60541        281001.00
  7126.53        1.6686        281104.00
  7126.97        1.72809        280979.00
  7127.32        1.77884        280857.00
  7127.63        1.81587        280685.00
  7128        1.84526        280560.00
  7128.51        1.84958        280587.00
  7128.92        1.8256        280673.00
  7129.36        1.78212        280602.00
  7129.71        1.73323        280574.00
  7129.98        1.68084        280588.00
  7130.39        1.59773        280512.00
  7130.85        1.52685        280368.00
  7131.29        1.46474        280353.00
  7131.61        1.41473        280324.00
  7131.93        1.37539        280355.00
  7132.33        1.33496        280358.00
  7132.84        1.29636        280325.00
  7133.25        1.27113        280340.00
  7133.66        1.25177        280358.00
  7134.01        1.23594        280338.00
  7134.31        1.22118        280400.00
  7134.77        1.19946        280376.00
  7135.26        1.1814        280369.00
  7135.68        1.16585        280380.00
  7135.99        1.15334        280318.00
  7136.31        1.14294        280310.00
  7136.76        1.13178        280299.00
  7137.23        1.12344        280348.00
  7137.64        1.11948        280287.00
  7138.05        1.11835        280265.00
  7138.37        1.11923        280233.00
  7138.68        1.12327        280231.00
  7139.1        1.13268        280223.00
  7139.59        1.14503        280226.00
  7139.97        1.15768        280223.00
  7140.3        1.17117        280225.00
  7140.6        1.18464        280199.00
  7141.1        1.20326        280261.00
  7141.55        1.21611        280234.00
  7141.97        1.22514        280277.00
  7142.35        1.22935        280266.00
  7142.68        1.23056        280215.00
  7143.02        1.22857        280222.00
  7143.5        1.22033        280148.00
  7143.97        1.2097        280235.00
  7144.37        1.19741        280259.00
  7144.66        1.18652        280184.00
  7145.01        1.1729        280209.00
  7145.51        1.15489        280141.00
  7145.93        1.13908        280171.00
  7146.13        1.13209        280202.00
  7147.13        1.09989        281607.47
  7148.38        1.06724        282953.53
  7149.48        1.0462        284295.16
  7150.77        1.03057        285557.34
  7151.97        1.02033        286899.06
  7153.2        1.01292        288155.28
  7154.54        1.00939        289438.03
  7155.71        1.01078        290658.28
  7157.06        1.01827        291973.00
  7158.36        1.03021        293176.19
  7159.68        1.04265        294404.84
  7161.13        1.05762        295627.97
  7162.38        1.07166        296860.50
  7163.86        1.09462        297949.50
  7165.24        1.13185        299143.88
  7166.57        1.17531        300242.69
  7168.13        1.21999        301310.91
  7169.65        1.25694        302427.50
  7171.05        1.28285        303495.50
  7172.58        1.2985        304598.88
  7174.16        1.30493        305727.59
  7175.68        1.30152        306769.69
  7177.21        1.28712        307837.12
  7178.93        1.26051        308895.94
  7180.55        1.23223        309864.06
  7182.12        1.20658        310682.53
  7183.68        1.18381        310947.31
  7185.46        1.16398        291081.44
  7187.23        1.14414        313204.84
  7188.93        1.12567        315022.59
  7190.59        1.10961        316211.62
  7192.31        1.09554        317246.97
  7194.16        1.08659        318316.56
  7196.03        1.0848        319271.47
  7197.85        1.08963        320241.66
  7199.58        1.09768        321266.12
  7201.35        1.1062        322265.88
  7203.32        1.11273        323200.88
  7205.35        1.11374        324151.12
  7207.25        1.11137        325150.66
  7209.15        1.10919        325885.44
  7211.12        1.10947        326697.44
  7213.07        1.11282        327662.72
  7215.04        1.11975        328640.22
  7217.07        1.12908        329532.97
  7219.03        1.13816        330473.94
  7221.2        1.14315        331416.12
  7223.33        1.14014        332369.56
  7225.45        1.13031        333202.22
  7227.53        1.1164        334086.09
  7229.69        1.09952        334967.16
  7231.91        1.08159        335961.47
  7234.08        1.06543        336863.97
  7236.24        1.0548        337815.69
  7238.49        1.05256        338886.59
  7240.78        1.06275        329086.72
  7243.02        1.07369        335643.00
  7245.23        1.08893        339365.53
  7247.52        1.10014        338137.22
  7249.89        1.10544        341598.09
  7252.23        1.10451        342507.16
  7254.44        1.10108        343352.41
  7256.89        1.09724        344216.84
  7259.21        1.09589        344988.47
  7261.66        1.09704        345766.25
  7263.94        1.09951        346708.22
  7266.39        1.10141        347433.34
  7268.9        1.10225        348203.62
  7271.37        1.10117        348895.09
  7273.92        1.09688        349891.75
  7276.51        1.08967        349788.53
  7279.08        1.07969        350767.47
  7281.49        1.06777        351364.59
  7284.13        1.05353        351945.88
  7286.68        1.03884        352112.28
  7289.18        1.02527        350398.84
  7291.9        1.01255        350983.59
  7294.65        1.00493        355958.44
  7297.36        1.00173        355658.47
  7299.9        1.00201        353997.62
  7302.57        1.00619        357607.94
  7305.32        1.01185        358382.41
  7308.1        1.01769        358969.97
  7310.93        1.02337        359729.72
  7313.65        1.02708        360319.56
  7316.34        1.02897        360879.56
  7319.17        1.02922        361472.69
  7322.11        1.02827        362090.97
  7325.02        1.02626        363008.34
  7327.71        1.02345        363582.88
  7330.6        1.01956        363831.53
  7333.67        1.01463        364127.31
  7336.42        1.00947        365954.19
  7339.3        1.00371        366482.22
  7342.4       0.997054        366602.38
  7345.32       0.990977        367317.62
  7348.29       0.985442        367739.03
  7351.33       0.98071        369123.53
  7354.38       0.977198        369536.16
  7357.41       0.974068        370156.88
  7360.5       0.97046        370775.72
  7363.6       0.966364        371269.69
  7366.71       0.962225        371863.75
  7369.87       0.958278        372499.94
  7372.99       0.954879        370256.25
  7376.13       0.952851        373437.62
  7379.47       0.95062        374052.16
  7382.56       0.949278        374261.75
  7385.67       0.948011        363252.47
  7389.12       0.947796        376617.31
  7392.25       0.946841        376942.25
  7395.59       0.94532        377380.25
  7398.92       0.943166        377900.41
  7402.06       0.940148        378453.62
  7405.55       0.935643        378946.97
  7408.75       0.930864        379532.38
  7412.29       0.924805        380038.91
  7415.62       0.918969        380720.53
  7419.01       0.912655        381177.25
  7422.41       0.907518        381666.06
  7425.93       0.903248        382145.97
  7429.33       0.899572        381762.97
  7432.83       0.896996        383357.03
  7436.38       0.898243        348599.22
  7439.77       0.8916        382051.50
  7443.45       0.888505        383834.84
  7446.93       0.886376        384549.31
  7450.55       0.884204        385208.84
  7454.19       0.882426        385779.47
  7457.67       0.880774        386364.16
  7461.4       0.879106        386958.97
  7464.98       0.877279        387539.84
  7468.74       0.874788        388015.81
  7472.33       0.87207        388635.84
  7476.02       0.868702        389020.97
  7479.61       0.865316        389703.19
  7483.61       0.860978        390137.47
  7487.23       0.855998        390578.84
  7491.05       0.850921        390942.31
  7494.81       0.845797        391504.84
  7498.51       0.841202        391929.44
  7502.57       0.836958        392494.12
  7506.25       0.833344        392868.88
  7510.16       0.830241        393326.72
  7514.07       0.8272        393786.62
  7517.82       0.824126        394067.62
  7521.94       0.820917        394610.69
  7525.81       0.817675        394922.81
  7529.65       0.814435        395401.03
  7533.64       0.811214        395801.31
  7537.68       0.807913        396149.66
  7541.57       0.80507        396333.09
  7545.75       0.801791        395706.59
  7549.74       0.797191        364256.16
  7553.58       0.796493        398842.81
  7557.85       0.793388        399379.50
  7561.93       0.790491        399600.28
  7565.87       0.787916        399899.12
  7570.21       0.784424        400320.03
  7574.33       0.780821        400728.00
  7578.46       0.777085        401116.06
  7582.46       0.773429        401530.19
  7586.9       0.769422        401801.34
  7591.07       0.765593        402150.59
  7595.2       0.762063        402536.91
  7599.52       0.758578        403053.28
  7603.82       0.754732        403449.69
  7608.16       0.751026        403752.19
  7612.29       0.747676        404234.75
  7616.59       0.744051        404634.38
  7621.03       0.740588        404951.06
  7625.45       0.737226        405278.81
  7629.76       0.733857        403380.62
  7634.1       0.730503        406016.47
  7638.57       0.727463        405550.41
  7643.11       0.723527        403034.38
  7647.68       0.720847        407117.44
  7652.19       0.717562        407432.53
  7656.71       0.714261        407800.69
  7661.17       0.711177        408156.94
  7665.92       0.707599        408571.19
  7670.53       0.70381        408854.53
  7675.25       0.700218        409369.94
  7679.87       0.696656        409507.38
  7684.6       0.693068        409949.88
  7689.25       0.689396        410260.44
  7693.97       0.685707        410693.03
  7698.81       0.682136        407883.72
  7703.62       0.678469        411286.44
  7708.48       0.674647        411590.22
  7713.27       0.67105        411934.03
  7718.16       0.667552        412427.94
  7722.96       0.664082        412580.88
  7727.83       0.66044        412873.84
  7732.58       0.656956        413054.88
  7737.58       0.653405        413277.00
  7742.52       0.649946        413632.12
  7747.57       0.646605        413908.31
  7752.52       0.643376        414321.56
  7757.58       0.639758        414642.88
  7762.54       0.636212        414763.22
  7767.63       0.632543        415048.59
  7772.63       0.628948        415498.06
  7777.7       0.625222        415753.56
  7782.72       0.621683        415908.09
  7787.8       0.618031        416133.69
  7792.83       0.614447        416358.31
  7797.93       0.610875        416653.03
  7803.02       0.607382        416879.75
  7808.17       0.603728        417193.53
  7813.3       0.600155        417389.38
  7818.47       0.59631        417525.25
  7823.65       0.59282        417789.16
  7828.85       0.589351        418077.16
  7834.1       0.58569        418265.16
  7839.34       0.58211        418453.22
  7844.66       0.578669        418616.31
  7849.95       0.574955        418646.47
  7855.29       0.571363        418978.69
  7860.69       0.567802        418869.91
  7866.02       0.56433        419648.19
  7871.44       0.560903        418723.53
  7876.79       0.557262        420798.91
  7882.24       0.553448        420610.31
  7887.59       0.550096        420576.78
  7893.1       0.546526        420654.28
  7898.5       0.542901        420821.84
  7904.02       0.539163        421015.41
  7909.39       0.535833        421114.06
  7914.97       0.532229        421345.72
  7920.37       0.52889        421607.44
  7925.95       0.525284        421833.19
  7931.38       0.521612        421911.00
  7936.99       0.518246        422121.81
  7942.46       0.514766        422301.69
  7948.17       0.511255        422437.62
  7953.75       0.508421        418064.59
  7959.54       0.504099        422809.56
  7965.18       0.500645        422592.62
  7970.99       0.497055        423491.69
  7976.62       0.493253        414639.81
  7982.4       0.490088        423563.97
  7988.09       0.486471        423691.16
  7993.82       0.48299        423840.41
  7999.48       0.479526        423864.66
  8005.25       0.475934        424049.97
  8011.17       0.472332        424291.34
  8017.04       0.468871        424478.72
  8023.01       0.46511        424529.16
  8028.8       0.461414        424410.59
  8034.68       0.457792        424581.09
  8040.41       0.454371        424434.62
  8046.4       0.450799        424702.22
  8052.36       0.447153        424749.81
  8058.38       0.443526        424880.47
  8064.28       0.439961        425124.16
  8070.2       0.436578        423373.88
  8076.09       0.432912        425237.62
  8082.07       0.429472        425336.41
  8084.09       0.428428        425436.22