File: data/Fe/FeS2_rt_01.xdi
# XDI/1.0
# Column.1: energy eV
# Column.2: i0
# Column.3: itrans
# Beamline.name: APS 13-BM-D
# Beamline.notes: vert slits = 2mm (at 45m)
# Detector.I0: N2 15cm
# Detector.I1: N2 15cm
# Element.edge: K
# Element.symbol: Fe
# Mono.d_spacing: 3.13550
# Mono.name: Si(111)
# Mono.notes: unfocussed, detuned 50%
# Sample.formula: FeS2
# Sample.name: FeS2 powder  Room Temperature
# Sample.prep: powder on tape, 4 layers
# Sample.reference: none
# Sample.temperature: Room Temperature
# Scan.start_time: 2002-03-16 15:13:22
# ///
#    Note: mono d_spacing is nominal!
#     Energy drive values recorded (encoder used, not recorded)
#     348 E XMU I0
#-------------
#   energy   i0   itrans
    6911.83  272002  121091
    6916.92  270032  120826
    6921.76  268827  120841
    6926.88  267514  120853
    6931.79  255214  115822
    6962  305150  138780
    6972  306445  141215
    6982  306446  143072
    6992  306744  144906
    7002  306246  146611
    7012  306358  148490
    7022  306309  150299
    7032  306019  151960
    7042  306529  154154
    7052  306124  155959
    7062  306188  157881
    7072  306119  159772
    7082  306143  161519
    7092  306098  163311
    7092.5  305825  163281
    7093  305756  163253
    7093.5  305745  163187
    7094  305717  163415
    7094.5  305670  163489
    7095  305666  163527
    7095.5  305631  163566
    7096  305585  163579
    7096.5  305536  163758
    7097  305539  163817
    7097.5  305510  163921
    7098  305466  163909
    7098.5  305494  163944
    7099  305432  164022
    7099.5  305503  164181
    7100  305402  164094
    7100.5  305414  164221
    7101  305391  164216
    7101.5  305400  164284
    7102  305952  164696
    7102.5  305420  164373
    7103  304860  164105
    7103.5  305180  164322
    7104  305180  164427
    7104.5  305435  164504
    7105  305144  164389
    7105.5  305045  164363
    7106  304943  164227
    7106.5  305015  164347
    7107  305023  164341
    7107.5  304990  164218
    7108  305117  164094
    7108.5  305305  164100
    7109  304852  163536
    7109.5  304938  163246
    7110  305214  162506
    7110.5  304831  161012
    7111  304668  158488
    7111.5  304489  155543
    7112  304804  153701
    7112.5  304821  152925
    7113  304700  152857
    7113.5  304652  152989
    7114  304907  153498
    7114.5  304536  153304
    7115  305540  152722
    7115.5  306249  150012
    7116  306100  143913
    7116.5  305917  134285
    7117  306536  122285
    7117.5  306925  112360
    7118  306741  106129
    7118.5  306475  100282
    7119  306428  96077.4
    7119.5  306460  93744.4
    7120  306450  93797.4
    7120.5  306582  95097.4
    7121  306359  96690.4
    7121.5  306364  97438.4
    7122  306349  97250.4
    7122.5  306255  96751.4
    7123  306266  96290.4
    7123.5  306230  95912.4
    7124  306227  95675.4
    7124.5  306371  95785.4
    7125  306051  95854.4
    7125.5  306141  95675.4
    7126  306113  95062.4
    7126.5  306099  94135.4
    7127  306090  92928.4
    7127.5  306010  91705.4
    7128  306003  90557.4
    7128.5  305954  89363.4
    7129  305942  88118.4
    7129.5  306047  86891.4
    7130  305942  85486.4
    7130.5  305940  84080.4
    7131  305777  82753.4
    7131.5  305771  81563.4
    7132  305988  80791.4
    7132.88  305946  79254.4
    7133.78  305893  77934.4
    7134.71  305719  76936.4
    7135.65  305734  76311.4
    7136.61  305686  76041.4
    7137.58  305808  76078.4
    7138.58  305655  76281.4
    7139.6  305680  76492.4
    7140.63  305655  76654.4
    7141.69  305647  77084.4
    7142.76  305546  77848.4
    7143.86  305620  79211.4
    7144.97  305565  80522.4
    7146.1  305942  81764.4
    7147.25  305369  82601.4
    7148.42  305508  83592.4
    7149.61  305329  84399.4
    7150.81  305424  85350.4
    7152.04  305227  86151.4
    7153.29  305483  86924.4
    7154.55  305317  87366.4
    7155.83  305327  87915.4
    7157.14  305362  88733.4
    7158.46  305483  89927.4
    7159.8  305185  91348.4
    7161.16  305200  92582.4
    7162.54  305144  93364.4
    7163.94  305132  93249.4
    7165.35  305025  92470.4
    7166.79  305071  91644.4
    7168.25  304988  91004.4
    7169.72  304957  90728.4
    7171.21  303977  90390.4
    7172.73  306335  90868.4
    7174.26  305331  90085.4
    7175.81  305180  89530.4
    7177.38  304691  88632.4
    7178.97  304825  87952.4
    7180.57  304819  87446.4
    7182.2  304876  87137.4
    7183.85  304881  86864.4
    7185.51  304902  86437.4
    7187.2  304750  85940.4
    7188.9  304618  85583.4
    7190.62  304729  85233.4
    7192.36  304624  84667.4
    7194.13  304796  84055.4
    7195.91  304913  83392.4
    7197.7  304714  82811.4
    7199.52  304745  82659.4
    7201.36  304572  83093.4
    7203.22  304614  84597.4
    7205.09  304650  86635.4
    7206.98  304423  88543.4
    7208.9  304251  90276.4
    7210.83  304339  91919.4
    7212.78  304465  93631.4
    7214.75  304344  95267.4
    7216.74  304357  96663.4
    7218.75  304283  97930.4
    7220.78  304310  98775.4
    7222.82  304357  99185.4
    7224.89  304315  99025.4
    7226.98  304319  98476.4
    7229.08  304265  97681.4
    7231.2  304222  97058.4
    7233.34  304141  96622.4
    7235.51  304231  96218.4
    7237.69  304163  95817.4
    7239.89  304198  95347.4
    7242.1  304019  94855.4
    7244.34  304007  94398.4
    7246.6  304050  93846.4
    7248.87  303881  93438.4
    7251.17  304021  93591.4
    7253.48  303919  94416.4
    7255.81  303971  95636.4
    7258.17  303951  96810.4
    7260.54  304123  97551.4
    7262.93  303754  97553.4
    7265.34  303422  97278.4
    7267.77  304213  97112.4
    7270.21  304372  96752.4
    7272.68  303800  96434.4
    7275.16  303768  96529.4
    7277.67  303769  97014.4
    7280.19  303936  97837.4
    7282.73  303644  98624.4
    7285.3  304254  99600.4
    7287.88  305223  100524
    7290.48  305548  101160
    7293.1  305571  101824
    7295.73  305599  102761
    7298.39  305554  104173
    7301.07  305441  105556
    7303.76  304737  106440
    7306.48  306215  107664
    7309.21  305425  107769
    7311.96  305631  108118
    7314.74  305492  108516
    7317.53  305331  108927
    7320.34  305591  109203
    7323.16  305413  109129
    7326.01  305373  108641
    7328.88  305099  107921
    7331.77  305523  107574
    7334.67  305074  107065
    7337.6  305182  107050
    7340.54  305300  107344
    7343.5  305317  108063
    7346.48  305293  108860
    7349.48  305162  109658
    7352.5  304986  110368
    7355.54  304917  110967
    7358.6  305066  111339
    7361.68  305087  111432
    7364.77  304731  111450
    7367.89  304884  111953
    7371.02  305111  112828
    7374.18  304985  113687
    7377.35  304910  114453
    7380.54  304699  115098
    7383.75  304984  115784
    7386.98  304841  116221
    7390.23  304467  116493
    7393.49  304650  116879
    7396.78  304697  117567
    7400.09  304742  118623
    7403.41  304816  119830
    7406.76  304658  120751
    7410.12  304605  121245
    7413.5  303795  121166
    7416.9  305304  122094
    7420.32  304548  122173
    7423.76  304397  122540
    7427.22  304707  123307
    7430.7  304458  123839
    7434.19  304310  124247
    7437.71  304338  124520
    7441.24  304342  124688
    7444.8  304576  124938
    7448.37  304397  125012
    7451.96  304464  125002
    7455.57  304333  125241
    7459.2  304131  125885
    7462.85  304376  126842
    7466.52  304297  127434
    7470.21  304048  127998
    7473.91  304975  129331
    7477.64  305708  130592
    7481.39  306082  131540
    7485.15  305961  132267
    7488.93  306201  133023
    7492.73  306134  133616
    7496.55  306039  134171
    7500.39  305977  134654
    7504.25  305156  134834
    7508.13  306748  136215
    7512.03  306054  136604
    7515.94  305949  137201
    7519.88  305906  137852
    7523.83  305935  138799
    7527.81  305891  139820
    7531.8  305816  140797
    7535.81  305895  141389
    7539.84  305839  141723
    7543.89  305840  142191
    7547.96  305863  142828
    7552.05  305740  143459
    7556.16  305560  144201
    7560.28  305668  145053
    7564.43  305785  145765
    7568.59  305684  146091
    7572.77  305582  146484
    7576.98  305523  146958
    7581.2  305558  147365
    7585.44  305647  147771
    7589.7  305208  148027
    7593.98  306038  149251
    7598.27  305315  149728
    7602.59  305573  150911
    7606.93  305378  151715
    7611.28  305425  152788
    7615.66  305488  153702
    7620.05  305297  154525
    7624.46  305001  155293
    7628.89  305246  156370
    7633.34  305391  157304
    7637.81  305277  158101
    7642.3  305129  158730
    7646.81  305185  159571
    7651.34  305107  160185
    7655.88  304968  160597
    7660.45  303292  160361
    7665.03  306701  162885
    7669.63  304931  162775
    7674.26  304917  163805
    7678.9  304978  164763
    7683.56  305007  165569
    7688.24  304909  166328
    7692.94  304867  167210
    7697.65  304843  168169
    7702.39  304732  168997
    7707.14  304761  169775
    7711.92  304780  170587
    7716.71  304730  171231
    7721.52  304752  171930
    7726.36  304652  172706
    7731.21  304949  173670
    7736.08  301749  172723
    7740.97  309843  178023
    7745.88  306494  176786
    7750.8  306086  177554
    7755.75  306137  178456
    7760.72  306150  179480
    7765.7  306231  180522
    7770.7  306178  181586
    7775.73  305604  182177
    7780.77  306396  183769
    7785.83  306122  184742
    7790.91  306044  185782
    7796.01  305959  186777
    7801.12  305944  187680
    7806.26  305753  188583
    7811.42  305897  189695
    7816.59  305849  190572
    7821.79  305834  191458
    7827  305216  191922
    7832.23  306347  193559
    7837.48  305718  194076
    7842.76  305672  194980
    7848.05  305591  195960
    7853.35  305721  197142
    7858.68  305761  198180
    7864.03  305543  199089
    7869.4  305580  200203
    7874.78  305561  201189
    7880.19  305567  202118
    7885.61  305548  203311
    7891.05  305485  204440
    7896.51  305410  205458
    7901.99  305454  206482
    7907.49  305471  207515
    7913.01  305389  208461
    7918.55  305311  209491
    7924.1  305383  210545
    7929.68  305224  211626
    7935.28  305309  212879
    7940.89  304801  213654
    7946.52  305709  215465
    7952.18  305185  216279
    7957.85  305134  217407
    7963.54  305037  218439
    7969.25  305340  219877