File: data/Cd/CdO_10K_02.xdi
# XDI/1.0
# Column.1: energy eV
# Column.2: i0
# Column.3: itrans
# Column.4: irefer
# Beamline.name: SSRL 4-3
# Detector.I0: Ar 30cm
# Detector.I1: Kr 15cm
# Detector.I2: Kr 15cm
# Element.edge: K
# Element.symbol: Cd
# Mono.d_spacing: 1.92009
# Mono.name: Si(220)
# Mono.notes: unfocused, detuned 20% at E=27800eV
# Sample.formula: CdO
# Sample.name: CdO monteponite
# Sample.prep: powder, mixed with B(OH)3
# Sample.reference: Cd foil
# Sample.temperature: 10K
# Scan.start_time: 1995-06-16 13:03:55
# ///
#    Note: mono d_spacing is nominal!
#     exafs to K17
#     368  E XMU XMUR I0
#-------------
#   energy   i0   itrans  irefer
   26485  60178  156774  573789
   26495.3  60022  156578  573638
   26504.7  60112  156800  575777
   26515.1  60103  156896  577124
   26524.5  59948  156562  576945
   26534.9  60037  156888  579195
   26545.3  60179  157316  581876
   26554.8  60033  157164  581680
   26565.2  60135  157467  584103
   26574.7  60163  157509  585531
   26585.1  60166  157590  586874
   26594.6  60116  157499  587502
   26605  60112  157731  588709
   26615.5  60094  157734  589835
   26625  60120  157694  590984
   26635.4  60309  158173  593631
   26644.9  60093  157696  592070
   26655.4  60152  157801  592747
   26665  60158  157597  592254
   26675.5  60124  157146  589794
   26685  59949  155890  582751
   26686  60213  156397  584995
   26687.9  60050  155762  581709
   26688.8  60126  155830  581656
   26689.8  60127  155664  580638
   26691.7  60059  155030  577063
   26692.7  60009  154747  575140
   26693.6  60094  154566  574139
   26694.6  59964  154047  570906
   26696.5  59918  152882  564410
   26697.4  59892  152406  560982
   26698.4  59988  151919  558099
   26700.3  59992  149898  546313
   26701.3  59971  148841  539809
   26702.2  60054  147719  533290
   26704.1  60097  144138  513124
   26705.1  60093  142189  502602
   26706  60044  139970  490975
   26708  59936  134283  462655
   26708.9  60080  131965  451508
   26709.9  59938  129128  438540
   26710.8  60042  126458  426743
   26712.7  59901  120049  399936
   26713.7  60075  118127  392168
   26714.7  60088  115896  383477
   26716.6  59912  111883  368355
   26717.5  60138  111283  366155
   26718.5  59960  110229  362354
   26720.4  59992  109856  361345
   26721.4  60030  110188  362574
   26722.3  59878  110454  363639
   26723.3  59928  111219  366642
   26725.2  59830  112877  373241
   26726.1  59981  113999  377638
   26727.1  59934  114745  380598
   26729  59937  116139  386312
   26730  59926  116556  387879
   26730.9  59998  117006  389746
   26732.9  59723  116985  389936
   26733.8  59847  117380  391432
   26734.8  59819  117471  391910
   26736.7  59701  117554  392491
   26737.7  59945  118113  394784
   26738.6  59771  117933  394063
   26739.6  59961  118317  395774
   26741.5  59803  117975  394498
   26742.4  59899  117974  394590
   26743.4  59807  117556  392927
   26745.3  59741  116579  389234
   26746.3  59836  116334  388158
   26747.2  59774  115650  385460
   26749.2  59802  114241  380039
   26750.1  119596  227099  754642
   26751.1  119721  225788  749708
   26752  119740  224443  744692
   26753  119895  223327  740586
   26754  119907  222146  736174
   26754.9  119820  220936  731689
   26755.9  119872  220228  729193
   26756.8  119938  219739  727558
   26757.8  119999  219526  726861
   26758.8  120089  219687  727755
   26759.7  120184  220137  729551
   26760.7  120339  220969  732825
   26761.7  120438  221978  736894
   26762.6  120537  223211  741695
   26763.6  120642  224599  747145
   26764.5  120944  226481  754612
   26765.5  121057  228083  760894
   26767.4  121104  231049  772670
   26768.4  121258  232443  778109
   26769.3  121521  233894  783874
   26770.3  121721  235066  788538
   26771.3  121957  236058  792414
   26773.2  122229  237091  796425
   26774.1  122501  237560  798340
   26775.1  122668  237717  798842
   26777  122800  237200  796771
   26778  123184  237485  797535
   26779  123279  237254  796502
   26780.9  123468  236609  793957
   26781.8  124019  237227  796291
   26782.8  124543  237809  798443
   26784.7  124788  237818  798566
   26785.7  125279  238629  801437
   26787.6  125519  239131  803430
   26788.6  125801  239776  805710
   26790.5  126196  240751  809478
   26791.5  126596  241605  812574
   26793.4  126905  242412  815677
   26794.4  127394  243386  819242
   26796.3  127717  244165  822248
   26798.2  128166  245207  826250
   26799.2  128624  246205  829893
   26801.1  129137  247497  834891
   26803  129530  248547  838829
   26804  129849  249320  841582
   26805.9  130396  250459  846032
   26807.9  130914  251325  849030
   26809.8  131354  251703  850221
   26810.7  131889  252402  852597
   26812.7  132405  252439  852305
   26814.6  132776  252062  850687
   26816.5  133272  251863  849568
   26818.5  133844  251991  849756
   26820.4  134411  252415  851197
   26822.3  134951  253190  853858
   26823.3  135608  254410  858274
   26825.2  135846  255208  861227
   26827.2  136381  256767  867078
   26829.1  137202  258909  875196
   26831  137738  260575  881513
   26832.9  138397  262381  888303
   26834.9  138981  264014  894245
   26836.8  139625  265674  900432
   26839.7  140037  267102  906143
   26841.6  140690  268734  912055
   26843.6  141360  270442  918490
   26845.5  142194  272445  926088
   26847.4  142838  274185  932509
   26849.4  143553  276008  939488
   26851.3  144261  277764  945953
   26854.2  145052  279675  953192
   26856.2  145833  281193  958753
   26858.1  146292  282019  961546
   26860  147184  283454  966707
   26862.9  147999  284392  970049
   26864.9  148625  285166  972572
   26866.8  149577  286509  977444
   26869.7  150374  287432  980611
   26871.6  151016  288424  983994
   26874.5  151953  290066  990013
   26876.5  152490  291232  994053
   26878.4  153242  292870  1.00014e+06
   26881.3  154008  294907  1.00781e+06
   26883.3  154813  296904  1.01528e+06
   26886.2  155968  299832  1.02659e+06
   26888.1  156798  301843  1.03409e+06
   26891  157826  304251  1.04339e+06
   26893  158377  305490  1.04771e+06
   26895.9  159443  307393  1.05472e+06
   26898.8  160182  308439  1.05828e+06
   26900.7  160876  309427  1.0616e+06
   26903.7  161935  310907  1.06684e+06
   26906.6  162992  312538  1.07284e+06
   26908.5  163734  313866  1.07762e+06
   26911.4  164782  315849  1.08504e+06
   26914.3  165731  317773  1.0919e+06
   26916.3  166920  320065  1.10041e+06
   26919.2  167596  321635  1.10605e+06
   26922.1  168571  323738  1.11402e+06
   26925  169686  326156  1.12315e+06
   26928  170352  327940  1.12974e+06
   26929.9  171231  329965  1.13724e+06
   26932.8  172173  332419  1.1466e+06
   26935.7  173298  335320  1.15767e+06
   26938.7  174431  338265  1.16912e+06
   26941.6  175133  340512  1.17764e+06
   26944.5  176142  343283  1.18797e+06
   26947.4  177188  346043  1.19879e+06
   26950.3  178146  348584  1.2086e+06
   26953.3  179416  351432  1.21934e+06
   26956.2  180442  353501  1.22726e+06
   26959.1  181727  355723  1.23532e+06
   26962  180851  354078  1.22754e+06
   26965  182080  355780  1.23371e+06
   26967.9  183540  357852  1.2413e+06
   26970.8  184244  358729  1.24449e+06
   26973.8  185509  360769  1.25182e+06
   26976.7  186777  362886  1.25965e+06
   26980.6  188240  365260  1.2688e+06
   26983.5  189262  367028  1.27523e+06
   26986.5  190114  368590  1.28071e+06
   26989.4  191191  370703  1.28878e+06
   26992.3  192182  372953  1.29704e+06
   26996.2  193368  375996  1.30904e+06
   26999.2  194822  379611  1.32284e+06
   27002.1  195821  382556  1.33418e+06
   27006  196939  386282  1.34886e+06
   27008.9  197984  389612  1.3617e+06
   27011.9  199332  393502  1.37702e+06
   27015.8  200593  397578  1.39322e+06
   27018.7  201236  399749  1.40147e+06
   27021.7  201833  401350  1.4071e+06
   27025.6  203619  403901  1.41671e+06
   27028.5  205291  405890  1.42353e+06
   27032.5  206273  405876  1.42288e+06
   27035.4  207520  407249  1.4275e+06
   27039.3  208885  409209  1.43466e+06
   27042.3  209951  411571  1.44349e+06
   27046.2  211047  414655  1.45576e+06
   27049.1  212583  418431  1.47026e+06
   27053.1  213833  421753  1.48307e+06
   27057  214104  423079  1.48819e+06
   27059.9  216002  426936  1.50297e+06
   27063.9  217004  429261  1.51182e+06
   27067.8  218316  432084  1.52254e+06
   27070.8  219758  435061  1.53394e+06
   27074.7  220956  437756  1.54435e+06
   27078.6  221717  439950  1.55278e+06
   27081.6  223060  443293  1.56562e+06
   27085.5  224224  446714  1.57927e+06
   27089.4  225122  449695  1.59111e+06
   27093.4  226610  453566  1.60624e+06
   27097.3  227778  456619  1.61844e+06
   27100.3  229481  460313  1.63251e+06
   27104.2  230477  462551  1.64149e+06
   27108.2  231719  464814  1.64973e+06
   27112.1  232862  466583  1.65613e+06
   27116.1  234077  468271  1.66248e+06
   27120  235549  470495  1.6705e+06
   27124  236650  472193  1.67685e+06
   27127.9  237773  474017  1.68352e+06
   27131.9  238956  475963  1.69122e+06
   27135.8  240670  479128  1.7033e+06
   27139.8  241688  481391  1.71204e+06
   27143.7  243077  484651  1.72486e+06
   27147.7  244012  487478  1.73619e+06
   27151.6  245699  492193  1.75479e+06
   27155.6  246581  495846  1.76936e+06
   27159.5  247886  500511  1.78822e+06
   27163.5  249075  504790  1.80573e+06
   27167.5  250306  508772  1.82157e+06
   27172.4  251327  511762  1.83342e+06
   27176.4  252833  514696  1.84492e+06
   27180.3  254240  517050  1.85406e+06
   27184.3  255169  518469  1.85909e+06
   27188.3  256284  520403  1.86639e+06
   27193.2  257675  523229  1.87763e+06
   27197.2  258776  525664  1.88715e+06
   27201.2  260101  528312  1.89753e+06
   27206.1  261515  530540  1.90582e+06
   27210.1  262536  531936  1.91078e+06
   27214.1  263702  533754  1.91788e+06
   27219.1  265060  536540  1.92925e+06
   27223  266426  539812  1.94254e+06
   27227  267844  543459  1.95672e+06
   27232  268713  546335  1.96854e+06
   27236  270178  550051  1.98384e+06
   27241  271427  553918  1.99954e+06
   27244.9  272667  557723  2.01466e+06
   27249.9  273801  561809  2.03167e+06
   27253.9  274782  565092  2.04474e+06
   27258.9  275902  568304  2.05787e+06
   27262.9  277255  571133  2.06942e+06
   27267.9  278515  573336  2.07788e+06
   27272.9  279469  574871  2.08407e+06
   27276.9  280798  577551  2.09489e+06
   27281.8  281734  580171  2.10562e+06
   27285.8  283206  583900  2.12093e+06
   27290.8  284434  587563  2.13593e+06
   27295.8  285963  591606  2.1527e+06
   27299.8  286884  594132  2.16268e+06
   27304.8  287814  596173  2.17096e+06
   27309.8  288772  597581  2.17661e+06
   27314.9  289987  599253  2.18359e+06
   27318.9  291711  602284  2.1958e+06
   27323.9  292509  603985  2.20271e+06
   27328.9  293764  606959  2.21519e+06
   27333.9  294784  609794  2.22642e+06
   27338.9  296144  613624  2.24233e+06
   27343.9  297402  617775  2.2601e+06
   27347.9  298398  621584  2.27561e+06
   27353  299555  626425  2.29604e+06
   27358  300177  629988  2.31121e+06
   27363  301492  633990  2.32798e+06
   27368  302570  636514  2.33808e+06
   27373.1  303664  638310  2.34588e+06
   27378.1  304649  639826  2.35192e+06
   27383.1  305402  641308  2.35817e+06
   27388.1  306301  643433  2.36756e+06
   27393.2  307395  646127  2.37887e+06
   27398.2  308366  648455  2.38857e+06
   27403.2  309700  651289  2.40127e+06
   27408.3  310825  653855  2.41179e+06
   27413.3  311835  656043  2.42169e+06
   27419.4  312765  658276  2.43113e+06
   27424.4  313539  660471  2.44018e+06
   27429.5  314606  663572  2.4535e+06
   27434.5  315362  666413  2.46622e+06
   27439.6  316483  670286  2.48302e+06
   27444.6  317627  674266  2.5e+06
   27450.7  318202  677054  2.51259e+06
   27455.8  318964  679459  2.52289e+06
   27460.8  320359  682735  2.53652e+06
   27465.9  321257  685067  2.54702e+06
   27472  322188  688028  2.56024e+06
   27477  322679  690223  2.57012e+06
   27482.1  323650  693339  2.58352e+06
   27488.2  324291  695444  2.59377e+06
   27493.2  325242  697746  2.60378e+06
   27499.3  326281  700047  2.61435e+06
   27504.4  327078  701782  2.62256e+06
   27509.5  327876  703694  2.63101e+06
   27515.6  328344  705142  2.63791e+06
   27520.7  329176  707454  2.64916e+06
   27526.8  329858  709927  2.66013e+06
   27531.8  330671  712252  2.67033e+06
   27538  331456  714397  2.68047e+06
   27543  332549  717031  2.69267e+06
   27549.2  333195  719576  2.70421e+06
   27554.2  333856  722380  2.71702e+06
   27560.4  334983  726163  2.7345e+06
   27565.5  335776  728635  2.74548e+06
   27571.6  335919  729151  2.74939e+06
   27577.7  336398  730655  2.75672e+06
   27582.8  337282  733587  2.7705e+06
   27588.9  337714  736703  2.78526e+06
   27595.1  338279  740051  2.80069e+06
   27600.2  339107  742950  2.8134e+06
   27606.3  339811  744857  2.82357e+06
   27612.5  339955  745557  2.82819e+06
   27618.6  340460  747313  2.83685e+06
   27623.7  341530  749978  2.84977e+06
   27629.9  342145  751412  2.85723e+06
   27636  342519  751595  2.85947e+06
   27642.2  342716  751238  2.86043e+06
   27647.3  343974  754015  2.87297e+06
   27653.5  344250  755916  2.88296e+06
   27659.6  344939  759731  2.90079e+06
   27665.8  345269  762686  2.91543e+06
   27671.9  345875  765325  2.92829e+06
   27678.1  346116  766667  2.93564e+06
   27684.3  346325  768010  2.94302e+06
   27690.5  346652  769817  2.9536e+06
   27696.6  346861  771560  2.96266e+06
   27702.8  347182  772913  2.97062e+06
   27709  347738  774539  2.97925e+06
   27715.2  347766  775215  2.98421e+06
   27721.4  348438  777576  2.99656e+06
   27727.6  348919  779662  3.00741e+06
   27733.7  349321  781287  3.01656e+06
   27739.9  350133  783562  3.02884e+06
   27746.1  350160  784661  3.03509e+06
   27752.3  350240  785722  3.04266e+06
   27758.5  350592  787277  3.05092e+06
   27764.8  351083  788450  3.05852e+06
   27771  351087  788458  3.06128e+06
   27778.2  350267  787479  3.06006e+06
   27784.4  350005  788135  3.0654e+06
   27790.6  349981  789301  3.07275e+06
   27796.9  351084  793017  3.09075e+06
   27803.1  351660  795288  3.10311e+06
   27810.4  350536  793882  3.10068e+06
   27816.6  349666  792636  3.09824e+06
   27822.8  350814  795761  3.11375e+06
   27829.1  353162  802183  3.14374e+06
   27836.3  354152  805580  3.16066e+06