File: data/Cd/CdO_10K_03.xdi
# XDI/1.0
# Column.1: energy eV
# Column.2: i0
# Column.3: itrans
# Column.4: irefer
# Beamline.name: SSRL 4-3
# Detector.I0: Ar 30cm
# Detector.I1: Kr 15cm
# Detector.I2: Kr 15cm
# Element.edge: K
# Element.symbol: Cd
# Mono.d_spacing: 1.92009
# Mono.name: Si(220)
# Mono.notes: unfocused, detuned 20% at E=27800eV
# Sample.formula: CdO
# Sample.name: CdO monteponite
# Sample.prep: powder, mixed with B(OH)3
# Sample.reference: Cd foil
# Sample.temperature: 10K
# Scan.start_time: 1995-06-16 13:03:55
# ///
#    Note: mono d_spacing is nominal!
#     exafs to K17
#     368  E XMU XMUR I0
#-------------
#   energy   i0   itrans  irefer
   26485  58698  142528  594124
   26495.3  58627  142472  594758
   26504.7  58483  142193  594574
   26515.1  58747  142798  598709
   26524.5  58451  142307  596957
   26534.9  58783  143019  601800
   26545.3  58714  142971  602403
   26554.8  58645  142976  602875
   26565.2  58754  143226  605434
   26574.7  58650  143050  605482
   26585.1  58936  143591  609675
   26594.6  58627  143081  607658
   26605  58816  143574  610846
   26615.5  58820  143640  612147
   26625  58902  143755  613938
   26635.4  59067  144001  616422
   26644.9  58879  143696  614904
   26655.4  59066  143911  616988
   26665  58782  143358  613355
   26675.5  58894  143155  612261
   26685  58820  142291  606267
   26686  58995  142474  607685
   26687.9  58925  142094  605337
   26688.8  58911  142021  604390
   26689.8  58973  141943  604031
   26691.7  58922  141490  600649
   26692.7  58980  141347  599751
   26693.6  58895  140976  597097
   26694.6  58913  140722  595243
   26696.5  58856  139827  589011
   26697.4  58779  139317  585122
   26698.4  58940  139023  583013
   26700.3  58764  137240  570384
   26701.3  58920  136572  565806
   26702.2  58878  135446  558026
   26704.1  58884  132423  537934
   26705.1  58844  130778  527202
   26706  58920  129110  516672
   26708  58840  124388  488313
   26708.9  58830  122189  475596
   26709.9  58827  119779  462229
   26710.8  58660  116988  447354
   26712.7  58906  112005  422206
   26713.7  58638  109513  410253
   26714.7  58773  107610  401482
   26716.6  58693  103787  384487
   26717.5  58787  102913  380526
   26718.5  58840  102157  377448
   26720.4  58704  101272  373793
   26721.4  58831  101551  375175
   26722.3  58768  101805  376340
   26723.3  58830  102447  379291
   26725.2  58822  104005  386332
   26726.1  58759  104657  389367
   26727.1  58856  105577  393611
   26729  58713  106724  398897
   26730  58781  107240  401398
   26730.9  58682  107443  402345
   26732.9  58650  107834  404506
   26733.8  58689  108073  405542
   26734.8  58813  108386  407060
   26736.7  58747  108573  408090
   26737.7  58762  108719  408841
   26738.6  58704  108738  409033
   26739.6  58611  108666  408796
   26741.5  58702  108772  409544
   26742.4  58640  108595  408501
   26743.4  58674  108456  408041
   26745.3  58450  107420  403403
   26746.3  58592  107266  402585
   26747.2  58624  106828  400593
   26749.2  58642  105643  395218
   26750.1  117241  210033  784803
   26751.1  117244  208765  779292
   26752  117262  207560  774043
   26753  117315  206431  769064
   26754  117163  205019  762869
   26754.9  117218  204067  758780
   26755.9  117198  203204  755036
   26756.8  117284  202673  752832
   26757.8  117438  202492  752105
   26758.8  117537  202520  752464
   26759.7  117881  203183  755598
   26760.7  117935  203665  757774
   26761.7  118024  204439  761194
   26762.6  118112  205461  765783
   26763.6  118259  206703  771393
   26764.5  118485  208221  778160
   26765.5  118691  209776  785208
   26767.4  118711  212527  797784
   26768.4  119094  214217  805351
   26769.3  119022  215082  809160
   26770.3  119320  216380  815100
   26771.3  119473  217254  818954
   26773.2  119705  218301  823791
   26774.1  120008  218861  826102
   26775.1  120431  219466  828677
   26777  120704  219363  828079
   26778  120867  219335  827583
   26779  121095  219344  827426
   26780.9  121208  218651  824246
   26781.8  121566  218938  825049
   26782.8  121876  219167  825930
   26784.7  122375  219511  827307
   26785.7  122704  219988  829205
   26787.6  122809  220214  830054
   26788.6  123100  220807  832341
   26790.5  123409  221575  835682
   26791.5  123882  222494  839571
   26793.4  124197  223255  842838
   26794.4  124751  224277  847092
   26796.3  125055  224986  849996
   26798.2  125417  225825  853623
   26799.2  126002  226927  858228
   26801.1  126311  227776  861880
   26803  126759  228897  866665
   26804  127283  229931  870877
   26805.9  127799  231008  875289
   26807.9  128128  231560  877626
   26809.8  128636  232141  879725
   26810.7  129019  232616  881237
   26812.7  129523  232679  881188
   26814.6  129983  232549  880151
   26816.5  130753  232882  880976
   26818.5  131338  233046  881264
   26820.4  131570  232858  879891
   26822.3  132054  233422  882005
   26823.3  132642  234439  886089
   26825.2  133091  235413  890195
   26827.2  133654  236875  896021
   26829.1  134348  238636  903719
   26831  135042  240445  911501
   26832.9  135650  242074  918365
   26834.9  136017  243243  923128
   26836.8  136571  244658  929145
   26839.7  137222  246416  936572
   26841.6  138052  248176  944167
   26843.6  138704  249727  950690
   26845.5  139340  251304  957275
   26847.4  140024  252970  964296
   26849.4  140667  254546  971030
   26851.3  141367  256220  977903
   26854.2  141945  257704  984111
   26856.2  142818  259310  990985
   26858.1  143672  260747  996836
   26860  144188  261514  999723
   26862.9  145015  262478  1.00317e+06
   26864.9  145760  263428  1.00699e+06
   26866.8  146484  264345  1.01036e+06
   26869.7  147311  265290  1.01387e+06
   26871.6  147809  266021  1.0165e+06
   26874.5  148777  267570  1.0228e+06
   26876.5  149421  268787  1.0277e+06
   26878.4  150288  270495  1.0347e+06
   26881.3  151221  272635  1.04378e+06
   26883.3  152094  274567  1.05196e+06
   26886.2  153079  277014  1.06255e+06
   26888.1  153604  278444  1.0682e+06
   26891  154500  280537  1.07707e+06
   26893  155389  282262  1.08428e+06
   26895.9  156442  284058  1.09161e+06
   26898.8  157256  285215  1.09617e+06
   26900.7  157990  286262  1.10008e+06
   26903.7  158638  287071  1.10266e+06
   26906.6  159421  288155  1.1069e+06
   26908.5  160522  289962  1.11428e+06
   26911.4  161584  291819  1.12186e+06
   26914.3  162458  293504  1.1288e+06
   26916.3  162915  294558  1.13264e+06
   26919.2  164126  296836  1.14231e+06
   26922.1  165207  298973  1.15124e+06
   26925  166057  300832  1.15899e+06
   26928  166849  302668  1.1664e+06
   26929.9  167626  304398  1.1736e+06
   26932.8  168148  306076  1.18033e+06
   26935.7  169379  308888  1.19246e+06
   26938.7  170057  310924  1.20108e+06
   26941.6  171272  313820  1.21353e+06
   26944.5  172617  316888  1.22693e+06
   26947.4  173516  319275  1.23717e+06
   26950.3  174592  321863  1.24835e+06
   26953.3  175641  324193  1.25827e+06
   26956.2  176767  326389  1.26728e+06
   26959.1  177844  328203  1.27465e+06
   26962  179093  330007  1.28195e+06
   26965  180133  331332  1.28697e+06
   26967.9  180912  332190  1.28976e+06
   26970.8  182261  334079  1.29735e+06
   26973.8  183004  335115  1.3013e+06
   26976.7  184233  337069  1.30892e+06
   26980.6  185429  338879  1.31636e+06
   26983.5  186495  340651  1.32358e+06
   26986.5  187718  342707  1.33207e+06
   26989.4  188807  344716  1.34022e+06
   26992.3  189950  347014  1.3499e+06
   26996.2  190895  349466  1.36024e+06
   26999.2  192339  352766  1.3747e+06
   27002.1  193443  355676  1.38715e+06
   27006  194186  358505  1.39971e+06
   27008.9  195365  361842  1.41407e+06
   27011.9  196749  365523  1.43019e+06
   27015.8  197944  369233  1.44694e+06
   27018.7  199077  372130  1.45931e+06
   27021.7  200060  374329  1.4685e+06
   27025.6  201311  376124  1.47559e+06
   27028.5  202682  377603  1.48104e+06
   27032.5  203618  377722  1.48017e+06
   27035.4  204932  379015  1.48493e+06
   27039.3  205843  380020  1.48865e+06
   27042.3  207161  382555  1.49928e+06
   27046.2  208539  385876  1.51371e+06
   27049.1  209934  389130  1.52803e+06
   27053.1  211003  392016  1.54035e+06
   27057  212093  394649  1.55152e+06
   27059.9  213162  396971  1.56122e+06
   27063.9  214559  399813  1.57337e+06
   27067.8  215822  402399  1.58438e+06
   27070.8  217233  405135  1.5959e+06
   27074.7  218022  407008  1.60368e+06
   27078.6  219389  410062  1.61675e+06
   27081.6  220498  412750  1.62807e+06
   27085.5  221788  416146  1.64317e+06
   27089.4  223035  419492  1.65782e+06
   27093.4  224250  422676  1.67181e+06
   27097.3  225535  425781  1.68531e+06
   27100.3  226975  428844  1.69843e+06
   27104.2  228138  431323  1.70904e+06
   27108.2  229592  433864  1.7199e+06
   27112.1  230603  435351  1.72571e+06
   27116.1  231665  436849  1.7311e+06
   27120  232650  438178  1.73628e+06
   27124  234352  440768  1.74706e+06
   27127.9  235040  441795  1.75093e+06
   27131.9  236479  444101  1.76057e+06
   27135.8  237864  446537  1.77062e+06
   27139.8  239016  448871  1.78044e+06
   27143.7  240533  452086  1.79433e+06
   27147.7  241669  455082  1.80721e+06
   27151.6  242842  458569  1.82265e+06
   27155.6  244139  462608  1.84085e+06
   27159.5  245434  466860  1.86004e+06
   27163.5  246924  471428  1.88057e+06
   27167.5  248033  474995  1.89654e+06
   27172.4  249014  477914  1.9094e+06
   27176.4  250080  480029  1.91821e+06
   27180.3  251686  482667  1.92943e+06
   27184.3  253115  484899  1.93844e+06
   27188.3  254358  486911  1.94688e+06
   27193.2  255539  489232  1.9567e+06
   27197.2  256871  491958  1.96848e+06
   27201.2  258067  494313  1.97834e+06
   27206.1  259016  495750  1.98397e+06
   27210.1  260307  497578  1.99134e+06
   27214.1  261508  499388  1.99856e+06
   27219.1  262716  501672  2.00849e+06
   27223  264279  505106  2.02356e+06
   27227  265603  508283  2.03772e+06
   27232  266773  511573  2.05174e+06
   27236  268095  514824  2.06644e+06
   27241  269062  517985  2.08058e+06
   27244.9  270419  521679  2.09746e+06
   27249.9  271700  525772  2.11615e+06
   27253.9  272355  528381  2.12742e+06
   27258.9  273675  531863  2.14307e+06
   27262.9  274916  534460  2.15426e+06
   27267.9  276279  536810  2.16409e+06
   27272.9  277509  538772  2.17248e+06
   27276.9  278799  541235  2.18293e+06
   27281.8  279709  543584  2.19341e+06
   27285.8  281208  547167  2.20973e+06
   27290.8  282210  550243  2.22349e+06
   27295.8  283573  553862  2.23953e+06
   27299.8  284406  556205  2.24949e+06
   27304.8  285593  558677  2.26063e+06
   27309.8  286866  560692  2.26919e+06
   27314.9  287825  561950  2.27433e+06
   27318.9  288934  563746  2.28206e+06
   27323.9  289820  565570  2.28948e+06
   27328.9  291291  568715  2.30359e+06
   27333.9  292243  571271  2.31522e+06
   27338.9  293273  574251  2.32878e+06
   27343.9  294489  578050  2.34611e+06
   27347.9  295779  582087  2.36445e+06
   27353  296705  586262  2.38372e+06
   27358  297897  590721  2.40435e+06
   27363  298715  593790  2.41793e+06
   27368  299707  596107  2.42854e+06
   27373.1  300812  597941  2.43674e+06
   27378.1  301998  599759  2.44471e+06
   27383.1  303457  602370  2.45602e+06
   27388.1  304476  604557  2.46614e+06
   27393.2  305476  606908  2.47677e+06
   27398.2  306427  609092  2.48691e+06
   27403.2  307766  611996  2.49979e+06
   27408.3  308676  614044  2.50911e+06
   27413.3  309806  616382  2.51996e+06
   27419.4  310527  618169  2.52804e+06
   27424.4  311632  620846  2.5402e+06
   27429.5  312526  623410  2.55231e+06
   27434.5  313432  626389  2.56598e+06
   27439.6  314548  630097  2.58291e+06
   27444.6  314983  632618  2.59476e+06
   27450.7  315622  635537  2.60833e+06
   27455.8  316318  637751  2.61869e+06
   27460.8  317505  640457  2.63143e+06
   27465.9  318532  642846  2.64301e+06
   27472  319336  645471  2.65487e+06
   27477  320369  648580  2.6695e+06
   27482.1  321194  651013  2.68301e+06
   27488.2  322347  654376  2.69724e+06
   27493.2  323357  656738  2.70803e+06
   27499.3  323882  657992  2.71477e+06
   27504.4  324559  659661  2.72202e+06
   27509.5  325759  662194  2.734e+06
   27515.6  326165  663510  2.74074e+06
   27520.7  327219  666157  2.75331e+06
   27526.8  328087  668821  2.76612e+06
   27531.8  328788  670938  2.77641e+06
   27538  329348  672648  2.78453e+06
   27543  330558  675435  2.79793e+06
   27549.2  331025  677438  2.80838e+06
   27554.2  331979  680667  2.8234e+06
   27560.4  331919  682205  2.83152e+06
   27565.5  332775  684641  2.84372e+06
   27571.6  333480  686389  2.85243e+06
   27577.7  334263  688287  2.86196e+06
   27582.8  335017  690814  2.87398e+06
   27588.9  335312  693475  2.88765e+06
   27595.1  336231  697352  2.907e+06
   27600.2  337461  700948  2.92395e+06
   27606.3  338183  702999  2.9347e+06
   27612.5  338807  704679  2.94318e+06
   27618.6  339120  705960  2.95009e+06
   27623.7  339934  708154  2.96097e+06
   27629.9  340502  709535  2.96846e+06
   27636  341412  710774  2.97516e+06
   27642.2  341502  710294  2.97486e+06
   27647.3  342464  712279  2.98451e+06
   27653.5  342961  714534  2.99641e+06
   27659.6  343192  717260  3.01058e+06
   27665.8  343790  720720  3.02767e+06
   27671.9  344016  722622  3.03802e+06
   27678.1  344768  724929  3.04986e+06
   27684.3  345264  726700  3.05982e+06
   27690.5  345709  728742  3.07102e+06
   27696.6  345786  730275  3.07906e+06
   27702.8  346222  731873  3.08843e+06
   27709  346579  733019  3.09524e+06
   27715.2  347364  735191  3.10665e+06
   27721.4  348036  737447  3.11909e+06
   27727.6  348644  739721  3.13153e+06
   27733.7  348912  741187  3.13945e+06
   27739.9  349552  743196  3.15031e+06
   27746.1  350022  744976  3.16053e+06
   27752.3  350644  747253  3.17322e+06
   27758.5  350596  747900  3.17827e+06
   27764.8  350775  748606  3.18284e+06
   27771  351013  749113  3.18751e+06
   27778.2  350212  748325  3.18584e+06
   27784.4  350082  749191  3.1922e+06
   27790.6  350331  750928  3.20197e+06
   27796.9  351365  754288  3.21965e+06
   27803.1  351753  756164  3.23072e+06
   27810.4  350621  755056  3.2278e+06
   27816.6  349840  754244  3.2262e+06
   27822.8  350553  756285  3.23795e+06
   27829.1  352680  761950  3.26649e+06
   27836.3  354503  766786  3.29164e+06