File: data/Cd/CdO_10K_01.xdi
# XDI/1.0
# Column.1: energy eV
# Column.2: i0
# Column.3: itrans
# Column.4: irefer
# Beamline.name: SSRL 4-3
# Detector.I0: Ar 30cm
# Detector.I1: Kr 15cm
# Detector.I2: Kr 15cm
# Element.edge: K
# Element.symbol: Cd
# Mono.d_spacing: 1.92009
# Mono.name: Si(220)
# Mono.notes: unfocused, detuned 20% at E=27800eV
# Sample.formula: CdO
# Sample.name: CdO monteponite
# Sample.prep: powder, mixed with B(OH)3
# Sample.reference: Cd foil
# Sample.temperature: 10K
# Scan.start_time: 1995-06-16 12:34:45
# ///
#    Note: mono d_spacing is nominal!
#     exafs to K17
#     368  E XMU XMUR I0
#-------------
#   energy   i0   itrans  irefer
   26485  60544  176444  537720
   26495.3  60545  176480  539069
   26504.7  60496  176419  539988
   26515.1  60613  176808  542392
   26524.5  60557  176769  543152
   26534.9  60692  177209  545736
   26545.3  60625  177193  546533
   26554.8  60625  177336  547690
   26565.2  60697  177605  549714
   26574.7  60594  177469  549874
   26585.1  60756  177916  552601
   26594.6  60754  178012  553677
   26605  60747  178134  554916
   26615.5  60854  178440  557138
   26625  60824  178421  557736
   26635.4  60980  178752  559959
   26644.9  60763  178264  558459
   26655.4  60886  178410  559730
   26665  60748  177894  557901
   26675.5  60837  177494  556359
   26685  60793  176119  550305
   26686  60763  175983  549652
   26687.9  60753  175447  547663
   26688.8  60779  175381  547020
   26689.8  60879  175309  546816
   26691.7  60672  174110  541606
   26692.7  60838  174103  541483
   26693.6  60814  173581  539094
   26694.6  60799  173033  536658
   26696.5  60796  171360  529435
   26697.4  60828  170646  525934
   26698.4  60914  169828  522238
   26700.3  60699  166257  506627
   26701.3  60865  164931  500835
   26702.2  60782  162879  492147
   26704.1  60692  157261  469553
   26705.1  60785  154839  459705
   26706  60802  151980  448813
   26708  60720  144472  421656
   26708.9  60835  141417  410929
   26709.9  60800  138153  399865
   26710.8  60745  134634  388300
   26712.7  60668  127833  366801
   26713.7  60726  125871  360588
   26714.7  60825  123924  354742
   26716.6  60727  120644  344909
   26717.5  60840  120166  343636
   26718.5  60767  119675  342246
   26720.4  60720  120096  343802
   26721.4  60777  120806  345904
   26722.3  60808  121706  348850
   26723.3  60768  122573  351530
   26725.2  60631  124580  357951
   26726.1  60786  125781  361791
   26727.1  60639  126307  363493
   26729  60624  127499  367536
   26730  60676  127957  368925
   26730.9  60814  128490  370801
   26732.9  60684  128629  371443
   26733.8  60658  128764  371852
   26734.8  60736  129062  372971
   26736.7  60630  129188  373520
   26737.7  60795  129634  375028
   26738.6  60749  129604  375001
   26739.6  60675  129443  374562
   26741.5  60457  128631  372109
   26742.4  60662  128772  372542
   26743.4  60543  128119  370471
   26745.3  60559  126941  366908
   26746.3  60551  126331  364897
   26747.2  60711  125886  363620
   26749.2  60427  123523  356285
   26750.1  121264  246277  710197
   26751.1  121345  244793  705741
   26752  121425  243435  701685
   26753  121507  242152  697957
   26754  121485  240934  694369
   26754.9  121617  240218  692363
   26755.9  121497  239362  689875
   26756.8  121585  239164  689518
   26757.8  121772  239498  690785
   26758.8  121746  239753  691718
   26759.7  122010  240889  695564
   26760.7  122091  241992  699285
   26761.7  122345  243656  704724
   26762.6  122464  245312  710065
   26763.6  122555  246976  715479
   26764.5  122703  248888  721585
   26765.5  122852  250773  727706
   26767.4  122958  254091  738435
   26768.4  123210  255703  743635
   26769.3  123429  257036  747952
   26770.3  123855  258569  752940
   26771.3  124064  259404  755699
   26773.2  124065  259570  756313
   26774.1  124404  260079  757962
   26775.1  124704  260345  758900
   26777  124738  259337  755706
   26778  125027  259399  755763
   26779  125331  259467  756138
   26780.9  125577  258858  754355
   26781.8  125822  259008  754834
   26782.8  126493  259973  757969
   26784.7  126866  260359  759388
   26785.7  127295  261184  762089
   26787.6  127490  261735  764166
   26788.6  127864  262620  766804
   26790.5  128340  263857  770841
   26791.5  128615  264549  773111
   26793.4  128960  265459  776105
   26794.4  129464  266553  779572
   26796.3  129836  267501  782773
   26798.2  130184  268496  785834
   26799.2  130573  269457  789066
   26801.1  131054  270809  793474
   26803  131456  271985  797421
   26804  132111  273413  801963
   26805.9  132470  274195  804602
   26807.9  132832  274664  805988
   26809.8  133663  275648  809076
   26810.7  134155  276188  810786
   26812.7  134638  275945  810013
   26814.6  135057  275539  808806
   26816.5  135507  275200  807689
   26818.5  136194  275597  808924
   26820.4  136845  276268  811174
   26822.3  137259  276982  813457
   26823.3  137867  278288  817478
   26825.2  138462  279921  822857
   26827.2  139148  282002  829501
   26829.1  139665  283811  835337
   26831  140268  285763  841591
   26832.9  140956  287774  848016
   26834.9  141572  289568  853765
   26836.8  142184  291309  859570
   26839.7  142931  293525  866660
   26841.6  143185  294499  869829
   26843.6  144040  296748  877086
   26845.5  145107  299420  885859
   26847.4  145734  301265  891641
   26849.4  146333  303020  897336
   26851.3  147108  305054  903953
   26854.2  147743  306734  909473
   26856.2  148400  308103  913731
   26858.1  149122  309392  917797
   26860  149916  310660  921816
   26862.9  150855  311830  925545
   26864.9  151491  312635  928083
   26866.8  152328  313812  931662
   26869.7  153099  314765  934842
   26871.6  153884  316158  939235
   26874.5  154738  317812  944630
   26876.5  155618  319678  950692
   26878.4  156221  321263  955727
   26881.3  157118  323821  964100
   26883.3  157803  325765  970423
   26886.2  158710  328551  979561
   26888.1  159578  330772  986877
   26891  160678  333485  995593
   26893  161329  334926  1.00024e+06
   26895.9  162449  336965  1.00666e+06
   26898.8  163019  337619  1.00878e+06
   26900.7  163903  339066  1.01325e+06
   26903.7  164954  340616  1.0184e+06
   26906.6  165876  342113  1.0231e+06
   26908.5  166628  343572  1.02786e+06
   26911.4  167597  345581  1.03427e+06
   26914.3  168718  347978  1.04209e+06
   26916.3  169444  349601  1.04736e+06
   26919.2  170372  351739  1.05419e+06
   26922.1  171388  354133  1.06192e+06
   26925  172150  356109  1.06853e+06
   26928  173381  359111  1.07835e+06
   26929.9  174440  361645  1.08671e+06
   26932.8  175280  364205  1.09467e+06
   26935.7  176249  367083  1.10446e+06
   26938.7  177224  370042  1.11424e+06
   26941.6  178321  373216  1.12474e+06
   26944.5  179358  376274  1.13489e+06
   26947.4  180352  379212  1.14449e+06
   26950.3  181341  382021  1.15378e+06
   26953.3  182188  384223  1.16112e+06
   26956.2  183736  387399  1.17158e+06
   26959.1  184639  388929  1.17648e+06
   26962  185759  390595  1.18175e+06
   26965  186819  392008  1.18625e+06
   26967.9  187987  393628  1.1916e+06
   26970.8  189002  395116  1.19658e+06
   26973.8  190278  397266  1.20339e+06
   26976.7  190972  398404  1.20721e+06
   26980.6  192211  400563  1.21431e+06
   26983.5  193474  402930  1.222e+06
   26986.5  194401  404718  1.22787e+06
   26989.4  195815  407662  1.23761e+06
   26992.3  196918  410313  1.24643e+06
   26996.2  197854  413253  1.25639e+06
   26999.2  199271  417148  1.26927e+06
   27002.1  200439  420728  1.28141e+06
   27006  201494  424746  1.29491e+06
   27008.9  202776  428865  1.30872e+06
   27011.9  203875  432706  1.32178e+06
   27015.8  204935  436771  1.33554e+06
   27018.7  206117  440056  1.34643e+06
   27021.7  207251  442589  1.35489e+06
   27025.6  208534  444193  1.36006e+06
   27028.5  209842  445476  1.3643e+06
   27032.5  210630  444998  1.36261e+06
   27035.4  212229  447029  1.36899e+06
   27039.3  213159  448361  1.37341e+06
   27042.3  214730  451923  1.38536e+06
   27046.2  215406  454564  1.39453e+06
   27049.1  216960  458654  1.40824e+06
   27053.1  218316  462468  1.42125e+06
   27057  219196  464971  1.42981e+06
   27059.9  220443  467910  1.43978e+06
   27063.9  221542  470556  1.4488e+06
   27067.8  222917  473718  1.45953e+06
   27070.8  224109  476406  1.46857e+06
   27074.7  225653  480012  1.48089e+06
   27078.6  226261  482096  1.48791e+06
   27081.6  227428  485337  1.49901e+06
   27085.5  228633  489104  1.51213e+06
   27089.4  230260  493764  1.52814e+06
   27093.4  231716  497840  1.54207e+06
   27097.3  232881  501132  1.55334e+06
   27100.3  233951  503827  1.56282e+06
   27104.2  235598  507425  1.57502e+06
   27108.2  236825  509704  1.58278e+06
   27112.1  237938  511381  1.58855e+06
   27116.1  239207  513263  1.59511e+06
   27120  240639  515467  1.60262e+06
   27124  241742  517197  1.60848e+06
   27127.9  243059  519428  1.61614e+06
   27131.9  244068  521154  1.62223e+06
   27135.8  245711  524383  1.63327e+06
   27139.8  247397  528091  1.64593e+06
   27143.7  248009  530067  1.65314e+06
   27147.7  249380  534106  1.66726e+06
   27151.6  250538  538239  1.68167e+06
   27155.6  251832  543073  1.69845e+06
   27159.5  253076  548016  1.71597e+06
   27163.5  254317  552787  1.73299e+06
   27167.5  256065  558058  1.75121e+06
   27172.4  257334  561642  1.76379e+06
   27176.4  258420  563839  1.7714e+06
   27180.3  259639  565858  1.77868e+06
   27184.3  260459  567028  1.78306e+06
   27188.3  262277  570497  1.79484e+06
   27193.2  263350  572825  1.80338e+06
   27197.2  264323  575152  1.81166e+06
   27201.2  265815  578219  1.82227e+06
   27206.1  266798  579540  1.82691e+06
   27210.1  267819  580895  1.83204e+06
   27214.1  269246  583330  1.84043e+06
   27219.1  270146  585478  1.8487e+06
   27223  271890  589799  1.86409e+06
   27227  273330  593724  1.8779e+06
   27232  274443  597256  1.89072e+06
   27236  275483  600497  1.90249e+06
   27241  276915  605064  1.91875e+06
   27244.9  277988  608823  1.93226e+06
   27249.9  278934  612861  1.94727e+06
   27253.9  279938  616330  1.96024e+06
   27258.9  281695  621016  1.97641e+06
   27262.9  282830  623484  1.98548e+06
   27267.9  284074  625629  1.99348e+06
   27272.9  284850  626865  1.99839e+06
   27276.9  286062  629578  2.00818e+06
   27281.8  287143  632688  2.01959e+06
   27285.8  288510  636480  2.03357e+06
   27290.8  289513  639913  2.04639e+06
   27295.8  290977  644139  2.06199e+06
   27299.8  292013  646958  2.07204e+06
   27304.8  293188  649437  2.08185e+06
   27309.8  294036  650615  2.0862e+06
   27314.9  295026  651873  2.09123e+06
   27318.9  296478  654549  2.10115e+06
   27323.9  297573  656887  2.11e+06
   27328.9  298178  658673  2.11762e+06
   27333.9  299358  662046  2.13006e+06
   27338.9  300471  665674  2.1436e+06
   27343.9  301326  669389  2.15771e+06
   27347.9  302659  674139  2.17545e+06
   27353  303801  679423  2.19494e+06
   27358  304868  684151  2.21232e+06
   27363  305819  687491  2.22553e+06
   27368  306716  689587  2.2338e+06
   27373.1  307822  691479  2.24086e+06
   27378.1  308877  693115  2.24763e+06
   27383.1  309619  694478  2.25357e+06
   27388.1  310508  696676  2.26237e+06
   27393.2  311570  699427  2.27274e+06
   27398.2  312562  701849  2.28253e+06
   27403.2  313522  704134  2.29172e+06
   27408.3  314398  706235  2.30012e+06
   27413.3  315311  708350  2.30887e+06
   27419.4  316177  710438  2.31766e+06
   27424.4  317123  712979  2.32814e+06
   27429.5  318247  716386  2.34125e+06
   27434.5  319334  720164  2.35614e+06
   27439.6  320155  723677  2.37001e+06
   27444.6  321024  727348  2.38413e+06
   27450.7  321887  730861  2.39796e+06
   27455.8  322940  733792  2.41004e+06
   27460.8  324000  736446  2.42075e+06
   27465.9  325135  739416  2.43272e+06
   27472  325531  741431  2.44193e+06
   27477  326261  744299  2.45349e+06
   27482.1  327076  747212  2.46499e+06
   27488.2  327630  749113  2.47385e+06
   27493.2  328602  751441  2.48369e+06
   27499.3  329375  753252  2.49189e+06
   27504.4  330086  754859  2.49965e+06
   27509.5  331072  757140  2.50935e+06
   27515.6  331642  758822  2.51695e+06
   27520.7  332401  761209  2.52695e+06
   27526.8  332907  763266  2.53663e+06
   27531.8  333070  764347  2.54181e+06
   27538  334106  767001  2.5537e+06
   27543  334618  768606  2.56134e+06
   27549.2  334792  770221  2.56892e+06
   27554.2  336106  774570  2.58616e+06
   27560.4  336590  777240  2.59802e+06
   27565.5  337423  779722  2.6087e+06
   27571.6  338196  781533  2.61748e+06
   27577.7  338351  782239  2.62264e+06
   27582.8  338862  784602  2.63301e+06
   27588.9  339490  788430  2.6489e+06
   27595.1  340257  792361  2.66515e+06
   27600.2  341019  795091  2.67735e+06
   27606.3  341435  796570  2.6848e+06
   27612.5  341802  797570  2.69118e+06
   27618.6  342235  799037  2.69921e+06
   27623.7  343418  802149  2.71237e+06
   27629.9  343474  802232  2.71511e+06
   27636  344026  802516  2.71875e+06
   27642.2  344595  802875  2.72281e+06
   27647.3  345352  804641  2.73155e+06
   27653.5  345346  806033  2.73939e+06
   27659.6  346070  810227  2.75728e+06
   27665.8  346339  813106  2.77053e+06
   27671.9  346513  814937  2.77976e+06
   27678.1  346995  816686  2.78869e+06
   27684.3  347643  818910  2.79963e+06
   27690.5  347944  820778  2.80948e+06
   27696.6  348170  822462  2.81818e+06
   27702.8  348546  823878  2.82642e+06
   27709  348913  825044  2.83324e+06
   27715.2  349320  826363  2.84145e+06
   27721.4  349504  827830  2.84958e+06
   27727.6  350159  830385  2.86182e+06
   27733.7  350259  831305  2.86835e+06
   27739.9  350211  831742  2.8733e+06
   27746.1  351368  835204  2.8888e+06
   27752.3  351070  835400  2.89316e+06
   27758.5  351346  836696  2.90059e+06
   27764.8  351483  836980  2.90502e+06
   27771  351604  837317  2.90923e+06
   27778.2  350640  835761  2.90764e+06
   27784.4  350308  836221  2.91256e+06
   27790.6  350257  837248  2.91978e+06
   27796.9  350990  840275  2.93399e+06
   27803.1  351526  842457  2.94563e+06
   27810.4  350173  840389  2.94158e+06
   27816.6  349540  839361  2.94162e+06
   27822.8  350247  841612  2.95315e+06
   27829.1  353032  849546  2.98567e+06
   27836.3  354065  853140  3.00297e+06