File: data/Cd/CdS_10K_02.xdi
# XDI/1.0
# Column.1: energy eV
# Column.2: i0
# Column.3: itrans
# Column.4: irefer
# Beamline.name: SSRL 4-3
# Detector.I0: Ar 30cm
# Detector.I1: Kr 15cm
# Detector.I2: Kr 15cm
# Element.edge: K
# Element.symbol: Cd
# Mono.d_spacing: 1.92009
# Mono.name: Si(220)
# Mono.notes: unfocused, detuned 20% at E=27800eV
# Sample.formula: CdS
# Sample.name: CdS greenockite
# Sample.prep: powder, mixed with B(OH)3
# Sample.reference: Cd foil
# Sample.temperature: 10K
# Scan.start_time: 1995-06-16 15:35:58
# ///
#    Note: mono d_spacing is nominal!
#     exafs to K17
#     368  E XMU XMUR I0
#-------------
#   energy   i0   itrans  irefer
   26485  48194  110575  626815
   26495.3  48086  110407  626466
   26504.7  48105  110429  627779
   26515.1  48128  110582  629215
   26524.5  48198  110717  631174
   26534.9  48166  110766  631872
   26545.3  48213  110864  633662
   26554.8  48052  110663  632567
   26565.2  48186  110974  635398
   26574.7  48072  110816  634820
   26585.1  48248  111152  638163
   26594.6  48088  110881  636928
   26605  48122  111040  638351
   26615.5  48146  111115  639533
   26625  48053  110911  638934
   26635.4  48192  111180  641284
   26644.9  48044  110892  639595
   26655.4  48166  111008  641004
   26665  48055  110664  638762
   26675.5  48168  110506  637832
   26685  47932  109402  629715
   26686  47983  109527  630076
   26687.9  48001  109301  628748
   26688.8  47963  109191  627520
   26689.8  48101  109287  628381
   26691.7  47956  108739  623999
   26692.7  48104  108806  624543
   26693.6  47965  108384  621191
   26694.6  48025  108263  620282
   26696.5  48022  107649  615434
   26697.4  47970  107242  612166
   26698.4  48037  106962  609933
   26700.3  47797  105407  597859
   26701.3  47938  105017  594578
   26702.2  47881  104172  587958
   26704.1  47851  101843  570452
   26705.1  47930  100835  562505
   26706  47916  99539.8  552912
   26708  47907  96236.8  529118
   26708.9  47921  94745.8  518572
   26709.9  47905  93182.8  507823
   26710.8  47850  91442.8  495943
   26712.7  47934  87884.8  472602
   26713.7  47866  86279.8  462235
   26714.7  47861  84626.8  451802
   26716.6  47794  81094.8  430051
   26717.5  47816  79834.8  422240
   26718.5  47824  78505.8  414257
   26720.4  47850  76151.8  400284
   26721.4  47895  75457.8  396253
   26722.3  47898  74842.8  392610
   26723.3  47959  74502.8  390684
   26725.2  47644  73717.8  386169
   26726.1  47864  74047.8  388098
   26727.1  47793  74021.8  387937
   26729  47839  74281.8  389541
   26730  47784  74288.8  389599
   26730.9  47809  74394.8  390284
   26732.9  47853  74635.8  391765
   26733.8  47745  74568.8  391365
   26734.8  47803  74727.8  392431
   26736.7  47761  74876.8  393365
   26737.7  47819  75042.8  394415
   26738.6  47702  74982.8  394064
   26739.6  47815  75236.8  395637
   26741.5  47597  75127.8  395079
   26742.4  47756  75446.8  396966
   26743.4  47725  75498.8  397326
   26745.3  47687  75621.8  398163
   26746.3  47733  75772.8  399040
   26747.2  47648  75728.8  398834
   26749.2  47662  75869.8  399709
   26750.1  95453  151979  800964
   26751.1  95512  152084  801647
   26752  95503.9  152035  801514
   26753  95534.6  151993  801400
   26754  95582.4  151935  801138
   26754.9  95585.2  151779  800263
   26755.9  95490.9  151439  798307
   26756.8  95444.5  151134  796497
   26757.8  95691.1  151220  797139
   26758.8  95764.7  151012  795985
   26759.7  95756.2  150714  794198
   26760.7  95987.7  150712  794292
   26761.7  95972.1  150378  792284
   26762.6  96055.5  150193  791263
   26763.6  96156.8  150053  790419
   26764.5  96324.1  150027  790261
   26765.5  96601.4  150180  791180
   26767.4  96661.6  149855  789281
   26768.4  96811.7  149926  789678
   26769.3  96926.8  149992  790004
   26770.3  97112.9  150173  790983
   26771.3  97164.9  150197  791046
   26773.2  97159.9  150136  790740
   26774.1  97669.8  150883  795019
   26775.1  97832.7  151154  796571
   26777  98059.5  151605  799236
   26778  98310.3  152060  801805
   26779  98457  152391  803579
   26780.9  98480.7  152673  805294
   26781.8  98821.4  153321  808865
   26782.8  99011  153749  811305
   26784.7  99312.5  154598  816261
   26785.7  99632  155291  820190
   26787.6  99741.5  155999  824371
   26788.6  100189  156934  829599
   26790.5  100386  157857  834982
   26791.5  100779  158738  839941
   26793.4  100973  159644  845317
   26794.4  101373  160500  850062
   26796.3  101602  161324  854847
   26798.2  101949  162170  859674
   26799.2  102367  162895  863778
   26801.1  102673  163455  867075
   26803  102977  163910  869492
   26804  103387  164516  872721
   26805.9  103659  164734  873916
   26807.9  104255  165346  877318
   26809.8  104478  165342  877187
   26810.7  104980  165949  880434
   26812.7  105426  166192  881743
   26814.6  105604  166073  880804
   26816.5  106177  166539  883248
   26818.5  106540  166756  884282
   26820.4  106856  166940  885278
   26822.3  107330  167455  888044
   26823.3  107883  168242  892336
   26825.2  108345  168815  895550
   26827.2  108791  169446  898968
   26829.1  109231  170106  902604
   26831  109648  170782  906300
   26832.9  110189  171669  911251
   26834.9  110601  172403  915362
   26836.8  111008  173173  919664
   26839.7  111564  174279  925890
   26841.6  112102  175281  931533
   26843.6  112547  176188  936579
   26845.5  113090  177277  942565
   26847.4  113663  178412  949067
   26849.4  114160  179461  954977
   26851.3  114747  180662  961715
   26854.2  115222  181853  968541
   26856.2  115691  182879  974306
   26858.1  116345  184185  981616
   26860  116814  185211  987422
   26862.9  117448  186614  995388
   26864.9  118150  187913  1.0028e+06
   26866.8  118631  188853  1.00811e+06
   26869.7  119293  190122  1.01518e+06
   26871.6  119907  191126  1.0209e+06
   26874.5  120685  192377  1.02788e+06
   26876.5  121207  193151  1.0322e+06
   26878.4  121926  194179  1.03778e+06
   26881.3  122494  194781  1.04105e+06
   26883.3  123222  195684  1.04596e+06
   26886.2  123758  196151  1.04838e+06
   26888.1  124518  197111  1.05372e+06
   26891  125184  197919  1.0581e+06
   26893  125658  198601  1.06178e+06
   26895.9  126266  199625  1.0673e+06
   26898.8  127120  201120  1.07589e+06
   26900.7  127776  202341  1.08265e+06
   26903.7  128393  203621  1.08984e+06
   26906.6  129175  205102  1.09827e+06
   26908.5  129738  206108  1.10389e+06
   26911.4  130596  207565  1.11208e+06
   26914.3  131234  208622  1.1179e+06
   26916.3  131733  209429  1.12226e+06
   26919.2  132589  210747  1.12958e+06
   26922.1  133309  211894  1.13599e+06
   26925  133846  212883  1.14155e+06
   26928  134602  214329  1.14965e+06
   26929.9  135368  215745  1.15769e+06
   26932.8  136139  217431  1.16716e+06
   26935.7  136938  219203  1.17732e+06
   26938.7  137751  221058  1.18793e+06
   26941.6  138406  222670  1.19711e+06
   26944.5  139127  224340  1.20671e+06
   26947.4  140065  226272  1.21771e+06
   26950.3  140844  227874  1.22687e+06
   26953.3  141650  229419  1.23558e+06
   26956.2  142562  230979  1.24444e+06
   26959.1  143197  231954  1.24989e+06
   26962  143931  233016  1.25558e+06
   26965  144865  234208  1.26223e+06
   26967.9  145640  235110  1.26724e+06
   26970.8  146436  236066  1.27242e+06
   26973.8  147147  236980  1.27727e+06
   26976.7  147909  238068  1.28335e+06
   26980.6  148674  239356  1.29077e+06
   26983.5  149671  241151  1.30079e+06
   26986.5  150511  242761  1.30994e+06
   26989.4  151467  244573  1.32033e+06
   26992.3  152375  246369  1.33047e+06
   26996.2  153066  247943  1.33962e+06
   26999.2  154055  249862  1.35046e+06
   27002.1  154782  251371  1.35909e+06
   27006  155830  253442  1.37105e+06
   27008.9  156570  254890  1.37928e+06
   27011.9  157513  256613  1.38894e+06
   27015.8  158589  258400  1.39933e+06
   27018.7  159557  259951  1.40799e+06
   27021.7  160401  261230  1.41504e+06
   27025.6  161239  262431  1.42185e+06
   27028.5  162186  263897  1.43009e+06
   27032.5  162917  265214  1.43757e+06
   27035.4  163877  267036  1.44792e+06
   27039.3  164611  268882  1.45882e+06
   27042.3  165729  271350  1.47291e+06
   27046.2  166648  273846  1.48745e+06
   27049.1  167559  276018  1.49987e+06
   27053.1  168452  278124  1.51223e+06
   27057  169583  280280  1.52468e+06
   27059.9  170267  281479  1.53136e+06
   27063.9  171445  283250  1.54161e+06
   27067.8  172267  284361  1.54779e+06
   27070.8  173252  285770  1.55567e+06
   27074.7  174134  286965  1.56253e+06
   27078.6  175181  288510  1.57129e+06
   27081.6  175987  289809  1.57851e+06
   27085.5  176954  291445  1.58788e+06
   27089.4  177602  292706  1.59504e+06
   27093.4  178666  294672  1.60645e+06
   27097.3  179750  296698  1.61813e+06
   27100.3  180776  298599  1.62903e+06
   27104.2  181544  300221  1.63843e+06
   27108.2  182594  302342  1.65064e+06
   27112.1  183394  304171  1.66144e+06
   27116.1  184451  306575  1.67531e+06
   27120  185400  308776  1.68811e+06
   27124  186430  311028  1.70121e+06
   27127.9  187101  312527  1.70992e+06
   27131.9  188427  314867  1.72332e+06
   27135.8  189121  316030  1.73015e+06
   27139.8  190452  318186  1.74258e+06
   27143.7  191325  319646  1.75099e+06
   27147.7  192242  321299  1.76042e+06
   27151.6  193145  322990  1.77029e+06
   27155.6  194184  324906  1.78151e+06
   27159.5  195244  326918  1.79309e+06
   27163.5  196330  329007  1.80535e+06
   27167.5  197203  330838  1.81601e+06
   27172.4  198092  332953  1.82843e+06
   27176.4  199037  335140  1.84114e+06
   27180.3  199842  337017  1.8523e+06
   27184.3  200868  339219  1.86495e+06
   27188.3  202011  341403  1.87777e+06
   27193.2  202728  342807  1.88597e+06
   27197.2  203764  344586  1.89642e+06
   27201.2  204862  346449  1.90733e+06
   27206.1  205617  347820  1.91533e+06
   27210.1  206390  349141  1.92295e+06
   27214.1  207340  350702  1.93208e+06
   27219.1  208428  352482  1.94249e+06
   27223  209497  354356  1.95352e+06
   27227  210448  356233  1.9645e+06
   27232  211320  358265  1.97662e+06
   27236  212234  360359  1.98871e+06
   27241  213280  362781  2.00313e+06
   27244.9  214180  364750  2.01503e+06
   27249.9  215243  367215  2.0296e+06
   27253.9  216128  369187  2.04128e+06
   27258.9  217039  371263  2.05365e+06
   27262.9  217905  373093  2.06439e+06
   27267.9  218990  375276  2.0776e+06
   27272.9  219892  377272  2.08944e+06
   27276.9  220818  379220  2.10082e+06
   27281.8  221799  381261  2.1131e+06
   27285.8  222760  383055  2.1238e+06
   27290.8  223720  384762  2.13387e+06
   27295.8  224595  386246  2.14279e+06
   27299.8  225747  388162  2.15412e+06
   27304.8  226366  389406  2.16153e+06
   27309.8  227173  391238  2.17247e+06
   27314.9  227967  393164  2.18423e+06
   27318.9  228939  395401  2.19745e+06
   27323.9  229756  397562  2.21051e+06
   27328.9  230549  399536  2.22255e+06
   27333.9  231516  401721  2.23563e+06
   27338.9  232406  403634  2.24727e+06
   27343.9  233399  405681  2.25964e+06
   27347.9  234271  407446  2.27004e+06
   27353  235287  409399  2.28187e+06
   27358  236020  410886  2.29104e+06
   27363  236820  412498  2.30086e+06
   27368  237865  414595  2.31349e+06
   27373.1  238815  416468  2.32512e+06
   27378.1  239418  417877  2.33371e+06
   27383.1  240191  419529  2.34374e+06
   27388.1  241061  421418  2.35539e+06
   27393.2  242149  423882  2.37018e+06
   27398.2  242737  425669  2.38117e+06
   27403.2  243668  428074  2.39588e+06
   27408.3  244740  430657  2.41169e+06
   27413.3  245557  432674  2.42408e+06
   27419.4  246302  434494  2.43548e+06
   27424.4  246890  435886  2.44421e+06
   27429.5  247915  438014  2.45716e+06
   27434.5  248647  439573  2.46696e+06
   27439.6  249301  441087  2.4764e+06
   27444.6  250069  442766  2.48673e+06
   27450.7  250683  444272  2.49624e+06
   27455.8  251470  445936  2.50664e+06
   27460.8  252690  448222  2.52083e+06
   27465.9  253253  449507  2.52901e+06
   27472  254062  451373  2.54063e+06
   27477  254812  453100  2.55144e+06
   27482.1  255340  454529  2.56061e+06
   27488.2  256038  456483  2.57303e+06
   27493.2  256806  458416  2.58521e+06
   27499.3  257443  460331  2.59724e+06
   27504.4  258375  462573  2.61117e+06
   27509.5  259039  464286  2.62194e+06
   27515.6  259648  465913  2.63231e+06
   27520.7  260271  467437  2.6419e+06
   27526.8  260788  468784  2.65088e+06
   27531.8  261728  470736  2.66319e+06
   27538  262082  471816  2.67036e+06
   27543  263060  473848  2.68336e+06
   27549.2  263573  475243  2.69233e+06
   27554.2  264619  477486  2.70667e+06
   27560.4  265028  478844  2.71575e+06
   27565.5  266019  481177  2.73064e+06
   27571.6  266714  483093  2.74304e+06
   27577.7  267239  484710  2.75365e+06
   27582.8  267872  486458  2.76468e+06
   27588.9  268515  488223  2.77636e+06
   27595.1  268998  489780  2.78645e+06
   27600.2  269795  491619  2.79845e+06
   27606.3  270189  492939  2.80732e+06
   27612.5  271056  494935  2.82041e+06
   27618.6  271336  495987  2.82772e+06
   27623.7  272005  497565  2.83795e+06
   27629.9  272542  498913  2.84716e+06
   27636  273284  500584  2.85832e+06
   27642.2  273454  501342  2.86402e+06
   27647.3  274244  503192  2.87601e+06
   27653.5  274638  504595  2.88558e+06
   27659.6  275017  506001  2.89534e+06
   27665.8  275559  507659  2.90651e+06
   27671.9  276215  509481  2.91864e+06
   27678.1  276539  510720  2.92728e+06
   27684.3  277203  512532  2.93956e+06
   27690.5  277676  514051  2.94974e+06
   27696.6  278403  516002  2.96274e+06
   27702.8  278760  517276  2.97181e+06
   27709  279084  518542  2.98063e+06
   27715.2  279606  520077  2.99111e+06
   27721.4  279959  521276  2.99973e+06
   27727.6  280417  522657  3.00939e+06
   27733.7  280737  523757  3.01736e+06
   27739.9  281100  524978  3.02593e+06
   27746.1  281737  526525  3.0368e+06
   27752.3  282090  527695  3.0452e+06
   27758.5  282544  529136  3.05531e+06
   27764.8  283023  530737  3.06649e+06
   27771  283461  532278  3.07741e+06
   27778.2  282846  532172  3.07822e+06
   27784.4  282649  532401  3.08122e+06
   27790.6  282178  532044  3.08043e+06
   27796.9  283108  534322  3.09585e+06
   27803.1  283832  536345  3.10965e+06
   27810.4  283360  536252  3.11075e+06
   27816.6  282574  535218  3.10603e+06
   27822.8  283386  537151  3.11919e+06
   27829.1  285355  541369  3.14675e+06
   27836.3  286907  544758  3.16939e+06