File: data/Cd/CdS_10K_03.xdi
# XDI/1.0
# Column.1: energy eV
# Column.2: i0
# Column.3: itrans
# Column.4: irefer
# Beamline.name: SSRL 4-3
# Detector.I0: Ar 30cm
# Detector.I1: Kr 15cm
# Detector.I2: Kr 15cm
# Element.edge: K
# Element.symbol: Cd
# Mono.d_spacing: 1.92009
# Mono.name: Si(220)
# Mono.notes: unfocused, detuned 20% at E=27800eV
# Sample.formula: CdS
# Sample.name: CdS greenockite
# Sample.prep: powder, mixed with B(OH)3
# Sample.reference: Cd foil
# Sample.temperature: 10K
# Scan.start_time: 1995-06-16 15:35:58
# ///
#    Note: mono d_spacing is nominal!
#     exafs to K17
#     368  E XMU XMUR I0
#-------------
#   energy   i0   itrans  irefer
   26485  46660  106214  618957
   26495.3  46609  106127  619186
   26504.7  46635  106146  620481
   26515.1  46741  106449  623094
   26524.5  46701  106394  623629
   26534.9  46778  106623  625700
   26545.3  46916  106912  628617
   26554.8  46693  106545  626612
   26565.2  46538  106412  625603
   26574.7  46796  106850  630087
   26585.1  46995  107248  633634
   26594.6  46840  106990  632414
   26605  46869  107126  633789
   26615.5  46885  107189  634793
   26625  46868  107128  635160
   26635.4  47026  107390  637659
   26644.9  46885  107073  636010
   26655.4  47018  107244  637584
   26665  46861  106741  634600
   26675.5  46983  106666  633834
   26685  46774  105592  625900
   26686  46945  105877  627841
   26687.9  46838  105470  624901
   26688.8  46990  105637  626020
   26689.8  46917  105393  624099
   26691.7  47025  105242  622926
   26692.7  46848  104773  619240
   26693.6  46837  104535  617468
   26694.6  46851  104338  615880
   26696.5  46989  103929  612667
   26697.4  46892  103414  608663
   26698.4  46894  103016  605565
   26700.3  46898  101803  596123
   26701.3  46926  101170  591165
   26702.2  46970  100443  585646
   26704.1  46835  97932.8  566536
   26705.1  46953  96892.8  558792
   26706  46797  95333.8  547351
   26708  46901  92181.8  524790
   26708.9  46869  90586.8  513598
   26709.9  46839  89006.8  502647
   26710.8  46753  87208.8  490529
   26712.7  46839  83735.8  467562
   26713.7  46809  82202.8  457703
   26714.7  46740  80480.8  446695
   26716.6  46790  77263.8  426489
   26717.5  46783  76037.8  418885
   26718.5  46800  74783.8  411249
   26720.4  46792  72549.8  397632
   26721.4  46828  71883.8  393664
   26722.3  46708  71148.8  389230
   26723.3  46791  70888.8  387717
   26725.2  46692  70474.8  385280
   26726.1  46744  70572.8  385895
   26727.1  46735  70633.8  386302
   26729  46661  70725.8  386862
   26730  46740  70908.8  388070
   26730.9  46661  70879.8  387887
   26732.9  46662  71031.8  389018
   26733.8  46672  71145.8  389614
   26734.8  46707  71272.8  390472
   26736.7  46608  71321.8  390900
   26737.7  46658  71489.8  391888
   26738.6  46687  71630.8  392769
   26739.6  46629  71640.8  392891
   26741.5  46653  71877.8  394392
   26742.4  46587  71868.8  394365
   26743.4  46642  72036.8  395401
   26745.3  46615  72173.8  396394
   26746.3  46652  72309.8  397162
   26747.2  46683  72413.8  397882
   26749.2  46586  72386.8  397767
   26750.1  93255  144943  796603
   26751.1  93418  145170  798149
   26752  93331.9  145014  797261
   26753  93367.6  144984  797145
   26754  93368.4  144863  796503
   26754.9  93394.2  144721  795700
   26755.9  93427.9  144567  794857
   26756.8  93540.5  144478  794419
   26757.8  93542.1  144215  792847
   26758.8  93665.7  144063  792043
   26759.7  93805.2  143951  791457
   26760.7  93838.7  143694  789888
   26761.7  93945.1  143535  788940
   26762.6  94010.5  143325  787714
   26763.6  94110.8  143220  787062
   26764.5  94239.1  143137  786614
   26765.5  94429.4  143184  786885
   26767.4  94516.6  142905  785260
   26768.4  94665.7  142972  785683
   26769.3  94784.8  143038  785963
   26770.3  95000.9  143257  787269
   26771.3  95251.9  143553  789084
   26773.2  95136.9  143353  787948
   26774.1  95401.8  143772  790314
   26775.1  95619.7  144137  792401
   26777  95861.5  144570  795203
   26778  96240.3  145207  798899
   26779  96338  145444  800243
   26780.9  96435.7  145815  802576
   26781.8  96749.4  146426  806032
   26782.8  97013  146954  809145
   26784.7  97115.5  147531  812564
   26785.7  97491  148280  816981
   26787.6  97744.5  149182  822371
   26788.6  97922.9  149722  825466
   26790.5  98133.3  150644  831008
   26791.5  98521.6  151516  836037
   26793.4  99002.9  152792  843759
   26794.4  99319.1  153476  847810
   26796.3  99619.3  154373  853176
   26798.2  99848.5  154990  856912
   26799.2  100289  155738  861173
   26801.1  100600  156307  864458
   26803  100759  156487  865604
   26804  101191  157103  869075
   26805.9  101400  157218  869708
   26807.9  101979  157786  872998
   26809.8  102090  157636  871978
   26810.7  102467  158060  874234
   26812.7  102813  158162  874783
   26814.6  103147  158249  875223
   26816.5  103695  158685  877649
   26818.5  104132  158990  879390
   26820.4  104582  159374  881625
   26822.3  105000  159796  884000
   26823.3  105529  160538  888123
   26825.2  105904  160983  890760
   26827.2  106357  161622  894314
   26829.1  106714  162158  897372
   26831  107167  162847  901383
   26832.9  107632  163611  905801
   26834.9  108078  164364  910222
   26836.8  108564  165228  915266
   26839.7  108955  166072  920238
   26841.6  109405  166926  925184
   26843.6  110083  168137  932268
   26845.5  110439  168929  936804
   26847.4  110941  169956  942754
   26849.4  111529  171112  949524
   26851.3  112019  172125  955509
   26854.2  112642  173503  963638
   26856.2  113042  174392  968859
   26858.1  113723  175695  976475
   26860  114356  176919  983662
   26862.9  114938  178204  991235
   26864.9  115489  179249  997344
   26866.8  116080  180331  1.00366e+06
   26869.7  116766  181565  1.0109e+06
   26871.6  117282  182422  1.01591e+06
   26874.5  118059  183644  1.023e+06
   26876.5  118514  184302  1.02677e+06
   26878.4  119313  185395  1.03308e+06
   26881.3  119841  185932  1.03602e+06
   26883.3  120646  186904  1.04166e+06
   26886.2  121207  187392  1.04443e+06
   26888.1  121894  188237  1.04926e+06
   26891  122555  189021  1.0538e+06
   26893  123022  189685  1.05752e+06
   26895.9  123689  190767  1.06375e+06
   26898.8  124366  191976  1.07093e+06
   26900.7  125068  193229  1.07815e+06
   26903.7  125664  194441  1.08522e+06
   26906.6  126421  195842  1.09352e+06
   26908.5  126990  196839  1.09921e+06
   26911.4  127779  198164  1.1069e+06
   26914.3  128427  199163  1.11278e+06
   26916.3  128978  200028  1.11772e+06
   26919.2  129679  201076  1.12383e+06
   26922.1  130580  202477  1.13197e+06
   26925  131037  203351  1.13693e+06
   26928  131882  204875  1.14598e+06
   26929.9  132557  206120  1.15326e+06
   26932.8  133307  207753  1.16282e+06
   26935.7  134203  209614  1.17395e+06
   26938.7  134914  211271  1.18382e+06
   26941.6  135761  213111  1.1947e+06
   26944.5  136133  214199  1.20122e+06
   26947.4  137195  216259  1.21338e+06
   26950.3  138087  217977  1.22364e+06
   26953.3  138745  219238  1.23101e+06
   26956.2  139699  220806  1.24028e+06
   26959.1  140391  221838  1.24632e+06
   26962  141327  223122  1.25367e+06
   26965  142368  224436  1.26143e+06
   26967.9  143075  225207  1.26579e+06
   26970.8  143955  226254  1.27177e+06
   26973.8  144681  227179  1.27711e+06
   26976.7  145491  228325  1.28377e+06
   26980.6  146166  229449  1.29047e+06
   26983.5  147003  230936  1.29924e+06
   26986.5  148075  232862  1.3105e+06
   26989.4  148882  234421  1.3197e+06
   26992.3  149904  236333  1.33109e+06
   26996.2  150467  237687  1.33917e+06
   26999.2  151564  239704  1.35118e+06
   27002.1  152351  241249  1.36031e+06
   27006  153348  243185  1.37197e+06
   27008.9  154042  244554  1.38005e+06
   27011.9  155060  246291  1.39025e+06
   27015.8  155872  247679  1.3985e+06
   27018.7  156708  248971  1.40603e+06
   27021.7  157713  250460  1.41469e+06
   27025.6  158591  251675  1.42193e+06
   27028.5  159559  253156  1.43053e+06
   27032.5  160384  254554  1.43897e+06
   27035.4  161183  256072  1.44803e+06
   27039.3  162108  258218  1.46089e+06
   27042.3  163164  260546  1.47477e+06
   27046.2  163947  262738  1.48806e+06
   27049.1  164976  265018  1.50169e+06
   27053.1  166009  267282  1.51538e+06
   27057  166811  268856  1.52485e+06
   27059.9  167948  270697  1.53572e+06
   27063.9  168640  271670  1.54155e+06
   27067.8  169545  272865  1.54855e+06
   27070.8  170521  274212  1.55652e+06
   27074.7  171763  275930  1.5667e+06
   27078.6  172571  277069  1.57356e+06
   27081.6  173495  278503  1.58182e+06
   27085.5  174404  280002  1.59093e+06
   27089.4  175273  281574  1.60018e+06
   27093.4  176482  283690  1.61299e+06
   27097.3  177406  285426  1.62344e+06
   27100.3  178373  287192  1.63391e+06
   27104.2  179057  288620  1.64261e+06
   27108.2  180019  290573  1.65434e+06
   27112.1  181142  292877  1.66819e+06
   27116.1  183983  297699  1.69811e+06
   27120  182686  296693  1.69116e+06
   27124  182694  297374  1.69527e+06
   27127.9  183295  298795  1.70356e+06
   27131.9  184159  300341  1.7129e+06
   27135.8  185218  302054  1.72327e+06
   27139.8  186436  303970  1.73486e+06
   27143.7  187314  305421  1.74356e+06
   27147.7  188216  306958  1.75284e+06
   27151.6  189388  309020  1.76531e+06
   27155.6  190017  310220  1.7727e+06
   27159.5  191314  312577  1.78678e+06
   27163.5  191871  313786  1.79414e+06
   27167.5  193356  316530  1.81081e+06
   27172.4  194189  318500  1.82289e+06
   27176.4  195132  320593  1.83551e+06
   27180.3  196202  322804  1.84908e+06
   27184.3  197334  325062  1.8629e+06
   27188.3  198222  326809  1.87338e+06
   27193.2  199263  328692  1.88489e+06
   27197.2  199944  329843  1.89184e+06
   27201.2  201145  331824  1.90392e+06
   27206.1  202018  333323  1.91314e+06
   27210.1  202902  334783  1.92188e+06
   27214.1  203775  336138  1.93012e+06
   27219.1  204680  337601  1.93909e+06
   27223  205931  339730  1.95213e+06
   27227  206872  341535  1.96309e+06
   27232  207814  343623  1.97595e+06
   27236  208734  345634  1.98829e+06
   27241  209780  347974  2.00282e+06
   27244.9  211195  350730  2.01977e+06
   27249.9  212063  352803  2.03262e+06
   27253.9  213028  354865  2.04524e+06
   27258.9  214061  357015  2.05871e+06
   27262.9  215170  359175  2.07187e+06
   27267.9  215905  360792  2.08199e+06
   27272.9  216760  362632  2.09335e+06
   27276.9  217878  364785  2.10668e+06
   27281.8  218956  366929  2.11999e+06
   27285.8  219733  368452  2.12939e+06
   27290.8  220897  370425  2.14166e+06
   27295.8  221819  371880  2.15078e+06
   27299.8  222774  373458  2.16047e+06
   27304.8  223659  375058  2.17049e+06
   27309.8  224732  377184  2.18368e+06
   27314.9  225862  379646  2.19894e+06
   27318.9  227049  382116  2.21432e+06
   27323.9  227743  384025  2.22625e+06
   27328.9  228832  386406  2.24129e+06
   27333.9  229684  388329  2.25343e+06
   27338.9  230747  390468  2.26684e+06
   27343.9  231659  392300  2.2785e+06
   27347.9  232655  394148  2.28995e+06
   27353  233531  395863  2.30072e+06
   27358  234486  397680  2.31215e+06
   27363  235503  399591  2.32427e+06
   27368  236245  401048  2.33357e+06
   27373.1  237338  403107  2.34657e+06
   27378.1  238374  405087  2.35911e+06
   27383.1  238962  406424  2.36754e+06
   27388.1  239982  408524  2.38085e+06
   27393.2  240817  410482  2.39326e+06
   27398.2  241701  412689  2.40735e+06
   27403.2  242560  414973  2.42176e+06
   27408.3  243353  417069  2.43512e+06
   27413.3  244264  419122  2.44828e+06
   27419.4  245006  420877  2.45972e+06
   27424.4  245930  422801  2.47187e+06
   27429.5  246505  424093  2.48026e+06
   27434.5  247290  425764  2.491e+06
   27439.6  248247  427670  2.5032e+06
   27444.6  249109  429461  2.51468e+06
   27450.7  249479  430568  2.52199e+06
   27455.8  250414  432396  2.53386e+06
   27460.8  251593  434551  2.54781e+06
   27465.9  252775  436762  2.56195e+06
   27472  253423  438265  2.57196e+06
   27477  254277  440120  2.58412e+06
   27482.1  255068  441985  2.59614e+06
   27488.2  255506  443499  2.60612e+06
   27493.2  256245  445341  2.61816e+06
   27499.3  256938  447277  2.63096e+06
   27504.4  257884  449427  2.64485e+06
   27509.5  258643  451260  2.65675e+06
   27515.6  259413  453054  2.66877e+06
   27520.7  260320  455002  2.68129e+06
   27526.8  260938  456447  2.69113e+06
   27531.8  261856  458329  2.70347e+06
   27538  262607  459991  2.71461e+06
   27543  263258  461429  2.72421e+06
   27549.2  264072  463287  2.73645e+06
   27554.2  264618  464643  2.74571e+06
   27560.4  265155  466246  2.75642e+06
   27565.5  266211  468616  2.77183e+06
   27571.6  266646  470077  2.78195e+06
   27577.7  267238  471802  2.79352e+06
   27582.8  267704  473193  2.8028e+06
   27588.9  268459  475064  2.81554e+06
   27595.1  269177  476935  2.82815e+06
   27600.2  269997  478833  2.84078e+06
   27606.3  270494  480246  2.85063e+06
   27612.5  271045  481766  2.86103e+06
   27618.6  271652  483279  2.87139e+06
   27623.7  272420  485000  2.88303e+06
   27629.9  273151  486616  2.89412e+06
   27636  273527  487679  2.90174e+06
   27642.2  273749  488518  2.9082e+06
   27647.3  274582  490411  2.92083e+06
   27653.5  274830  491533  2.92878e+06
   27659.6  275422  493242  2.94054e+06
   27665.8  275995  494915  2.95227e+06
   27671.9  276102  495784  2.9588e+06
   27678.1  277142  498124  2.97482e+06
   27684.3  277714  499790  2.9864e+06
   27690.5  278070  501068  2.99558e+06
   27696.6  278455  502415  3.00519e+06
   27702.8  278825  503689  3.01448e+06
   27709  279295  505155  3.02497e+06
   27715.2  279962  506893  3.03703e+06
   27721.4  280302  508040  3.04567e+06
   27727.6  280919  509692  3.05721e+06
   27733.7  281408  511053  3.06699e+06
   27739.9  282028  512569  3.07795e+06
   27746.1  283123  514943  3.09417e+06
   27752.3  283430  515996  3.10218e+06
   27758.5  283624  516911  3.10922e+06
   27764.8  284073  518356  3.11964e+06
   27771  284413  519720  3.12979e+06
   27778.2  284160  520215  3.13441e+06
   27784.4  283423  519704  3.13202e+06
   27790.6  283250  519749  3.13399e+06
   27796.9  284244  522126  3.15054e+06
   27803.1  285280  524565  3.16758e+06
   27810.4  284745  524299  3.16767e+06
   27816.6  284128  523613  3.16481e+06
   27822.8  284182  524246  3.17019e+06
   27829.1  286196  528407  3.1981e+06
   27836.3  287849  531901  3.22194e+06