File: data/Cd/CdS_10K_01.xdi
# XDI/1.0
# Column.1: energy eV
# Column.2: i0
# Column.3: itrans
# Column.4: irefer
# Beamline.name: SSRL 4-3
# Detector.I0: Ar 30cm
# Detector.I1: Kr 15cm
# Detector.I2: Kr 15cm
# Element.edge: K
# Element.symbol: Cd
# Mono.d_spacing: 1.92009
# Mono.name: Si(220)
# Mono.notes: unfocused, detuned 20% at E=27800eV
# Sample.formula: CdS
# Sample.name: CdS greenockite
# Sample.prep: powder, mixed with B(OH)3
# Sample.reference: Cd foil
# Sample.temperature: 10K
# Scan.start_time: 1995-06-16 15:35:58
# ///
#    Note: mono d_spacing is nominal!
#     exafs to K17
#     368  E XMU XMUR I0
#-------------
#   energy   i0   itrans  irefer
   26485  48276  113068  614891
   26495.3  48302  113137  616283
   26504.7  48189  112966  615904
   26515.1  48388  113360  619606
   26524.5  48304  113213  619523
   26534.9  48388  113474  621792
   26545.3  48418  113583  623374
   26554.8  48339  113505  623361
   26565.2  48447  113752  625921
   26574.7  48458  113801  626960
   26585.1  48582  114043  629615
   26594.6  48478  113863  629110
   26605  48423  113880  629453
   26615.5  48548  114117  631999
   26625  48522  114051  632322
   26635.4  48586  114099  633679
   26644.9  48429  113840  631893
   26655.4  48609  114070  634094
   26665  48507  113709  631920
   26675.5  48566  113491  630256
   26685  48585  112817  625375
   26686  48523  112715  624268
   26687.9  48587  112588  623539
   26688.8  48527  112416  621993
   26689.8  48585  112379  621767
   26691.7  48571  112037  618994
   26692.7  48598  111898  617996
   26693.6  48572  111650  616075
   26694.6  48511  111339  613543
   26696.5  48633  110923  610183
   26697.4  48443  110273  605101
   26698.4  48602  110128  603961
   26700.3  48563  108898  594181
   26701.3  48522  108145  588459
   26702.2  48608  107501  583390
   26704.1  48522  105066  564903
   26705.1  48520  103862  555823
   26706  48460  102477  545683
   26708  48602  99382.8  523622
   26708.9  48493  97683.8  511882
   26709.9  48544  96175.8  501683
   26710.8  48448  94338.8  489457
   26712.7  48502  90772.8  466440
   26713.7  48562  89333.8  457471
   26714.7  48496  87585.8  446652
   26716.6  48441  83997.8  425224
   26717.5  48503  82853.8  418291
   26718.5  48576  81633.8  411174
   26720.4  48459  79084.8  396504
   26721.4  48467  78360.8  392403
   26722.3  48389  77624.8  388209
   26723.3  48450  77292.8  386385
   26725.2  48432  76944.8  384472
   26726.1  48480  77035.8  384986
   26727.1  48533  77180.8  385864
   26729  48451  77279.8  386437
   26730  48554  77492.8  387775
   26730.9  48453  77440.8  387435
   26732.9  48513  77685.8  389025
   26733.8  48427  77673.8  388855
   26734.8  48441  77774.8  389501
   26736.7  48392  77923.8  390388
   26737.7  48463  78098.8  391539
   26738.6  48461  78192.8  392089
   26739.6  48419  78242.8  392345
   26741.5  48477  78531.8  394125
   26742.4  48435  78563.8  394371
   26743.4  48453  78681.8  395110
   26745.3  48250  78573.8  394610
   26746.3  48395  78863.8  396285
   26747.2  48364  78898.8  396529
   26749.2  48421  79107.8  397763
   26750.1  96871  158308  796184
   26751.1  96828  158262  795990
   26752  96739.9  158102  795233
   26753  96837.6  158170  795668
   26754  96923.4  158188  795811
   26754.9  96773.2  157792  793640
   26755.9  96896.9  157774  793527
   26756.8  97042.5  157732  793402
   26757.8  97149.1  157603  792764
   26758.8  97301.7  157507  792227
   26759.7  97217.2  157088  789840
   26760.7  97511.7  157190  790465
   26761.7  97484.1  156829  788422
   26762.6  97543.5  156603  787047
   26763.6  97674.8  156518  786604
   26764.5  97912.1  156593  787051
   26765.5  97944.4  156424  785963
   26767.4  97966.6  156016  783710
   26768.4  98341.7  156417  785895
   26769.3  98590.8  156659  787248
   26770.3  98628.9  156633  786987
   26771.3  98791.9  156810  787949
   26773.2  98907.9  156915  788671
   26774.1  99169.8  157327  790828
   26775.1  99321.7  157609  792321
   26777  99435.5  157914  793958
   26778  99703.3  158391  796612
   26779  99997  158924  799505
   26780.9  100143  159394  802187
   26781.8  100350  159870  804603
   26782.8  100687  160521  808236
   26784.7  100910  161278  812435
   26785.7  101088  161786  815106
   26787.6  101294  162650  819957
   26788.6  101696  163527  824776
   26790.5  101868  164434  829867
   26791.5  102226  165300  834475
   26793.4  102512  166358  840519
   26794.4  102941  167283  845458
   26796.3  103264  168284  851019
   26798.2  103523  169021  855163
   26799.2  104013  169885  859807
   26801.1  104307  170487  863033
   26803  104530  170824  864818
   26804  105079  171644  869187
   26805.9  105329  171845  870218
   26807.9  105815  172330  872675
   26809.8  106053  172374  872715
   26810.7  106504  172928  875523
   26812.7  106904  173144  876445
   26814.6  107194  173154  876364
   26816.5  107749  173608  878604
   26818.5  108123  173839  879658
   26820.4  108447  174056  880611
   26822.3  108935  174614  883497
   26823.3  109607  175568  888572
   26825.2  109891  175913  890300
   26827.2  110418  176674  894261
   26829.1  110775  177230  897132
   26831  111196  177910  900704
   26832.9  111726  178809  905493
   26834.9  112275  179764  910627
   26836.8  112661  180539  914632
   26839.7  113148  181566  920215
   26841.6  113666  182558  925567
   26843.6  114263  183708  931752
   26845.5  114690  184635  936733
   26847.4  115177  185677  942338
   26849.4  115939  187166  950326
   26851.3  116453  188295  956388
   26854.2  116996  189629  963724
   26856.2  117504  190727  969682
   26858.1  118094  191973  976370
   26860  118800  193373  983995
   26862.9  119488  194889  992343
   26864.9  119968  195911  997793
   26866.8  120698  197262  1.00509e+06
   26869.7  121285  198439  1.0115e+06
   26871.6  121960  199611  1.01782e+06
   26874.5  122495  200552  1.02267e+06
   26876.5  123069  201459  1.02739e+06
   26878.4  123799  202490  1.03297e+06
   26881.3  124291  203050  1.03567e+06
   26883.3  125068  204065  1.04098e+06
   26886.2  125745  204750  1.04444e+06
   26888.1  126316  205447  1.04801e+06
   26891  126731  205898  1.05016e+06
   26893  127526  207087  1.05644e+06
   26895.9  128182  208186  1.06218e+06
   26898.8  128824  209412  1.06879e+06
   26900.7  129584  210799  1.07624e+06
   26903.7  130059  211912  1.08219e+06
   26906.6  130980  213649  1.09166e+06
   26908.5  131658  214866  1.09819e+06
   26911.4  132365  216149  1.10505e+06
   26914.3  133042  217283  1.11109e+06
   26916.3  133809  218532  1.11767e+06
   26919.2  134578  219753  1.12412e+06
   26922.1  135243  220854  1.12995e+06
   26925  135895  222015  1.13623e+06
   26928  136601  223403  1.14376e+06
   26929.9  137498  225076  1.15277e+06
   26932.8  138258  226793  1.16204e+06
   26935.7  139042  228604  1.17191e+06
   26938.7  139778  230366  1.1816e+06
   26941.6  140517  232148  1.19135e+06
   26944.5  141145  233764  1.20015e+06
   26947.4  142121  235810  1.21137e+06
   26950.3  142949  237545  1.22086e+06
   26953.3  143663  238989  1.22876e+06
   26956.2  144440  240422  1.23631e+06
   26959.1  145243  241704  1.24326e+06
   26962  146283  243230  1.25137e+06
   26965  147117  244314  1.25707e+06
   26967.9  147966  245378  1.26258e+06
   26970.8  148630  246176  1.26654e+06
   26973.8  149566  247435  1.27323e+06
   26976.7  150247  248445  1.2785e+06
   26980.6  151067  249855  1.28611e+06
   26983.5  152050  251662  1.29586e+06
   26986.5  152839  253212  1.30423e+06
   26989.4  153854  255178  1.31498e+06
   26992.3  154440  256544  1.32222e+06
   26996.2  155078  258081  1.33079e+06
   26999.2  156205  260287  1.3428e+06
   27002.1  156978  261927  1.35168e+06
   27006  157887  263846  1.36226e+06
   27008.9  158583  265290  1.37006e+06
   27011.9  159782  267458  1.38181e+06
   27015.8  160688  269071  1.39066e+06
   27018.7  161573  270541  1.39855e+06
   27021.7  162401  271846  1.40538e+06
   27025.6  163485  273456  1.41426e+06
   27028.5  164284  274737  1.42096e+06
   27032.5  165118  276199  1.42893e+06
   27035.4  165957  277867  1.43799e+06
   27039.3  167031  280322  1.45158e+06
   27042.3  167841  282368  1.4628e+06
   27046.2  168848  285059  1.47784e+06
   27049.1  169567  286982  1.48846e+06
   27053.1  170798  289715  1.50379e+06
   27057  171730  291676  1.51457e+06
   27059.9  172700  293373  1.52373e+06
   27063.9  173720  294956  1.5324e+06
   27067.8  174725  296377  1.54006e+06
   27070.8  175436  297417  1.54547e+06
   27074.7  176503  298969  1.55389e+06
   27078.6  177266  300110  1.55998e+06
   27081.6  178487  302091  1.57079e+06
   27085.5  179250  303447  1.57813e+06
   27089.4  180167  305185  1.58761e+06
   27093.4  181026  306848  1.59686e+06
   27097.3  181990  308787  1.60746e+06
   27100.3  183062  310819  1.61865e+06
   27104.2  183715  312279  1.62661e+06
   27108.2  184853  314612  1.63953e+06
   27112.1  185908  316902  1.65235e+06
   27116.1  186784  319058  1.66428e+06
   27120  187840  321523  1.67808e+06
   27124  188589  323385  1.68846e+06
   27127.9  189712  325682  1.70132e+06
   27131.9  190684  327545  1.71164e+06
   27135.8  191483  328985  1.7194e+06
   27139.8  192609  330909  1.72994e+06
   27143.7  193546  332547  1.73899e+06
   27147.7  194427  334133  1.74777e+06
   27151.6  195407  336019  1.75804e+06
   27155.6  196209  337619  1.7671e+06
   27159.5  197456  340042  1.78024e+06
   27163.5  198172  341594  1.78895e+06
   27167.5  199364  344023  1.80253e+06
   27172.4  200038  345846  1.81292e+06
   27176.4  201328  348609  1.8283e+06
   27180.3  201916  350243  1.83742e+06
   27184.3  202870  352366  1.84923e+06
   27188.3  203971  354565  1.86157e+06
   27193.2  204746  356127  1.87043e+06
   27197.2  205896  358195  1.88181e+06
   27201.2  206779  359788  1.89062e+06
   27206.1  207510  361132  1.89825e+06
   27210.1  208485  362821  1.9076e+06
   27214.1  209421  364420  1.91631e+06
   27219.1  210216  365776  1.92389e+06
   27223  211293  367731  1.93495e+06
   27227  212469  369990  1.94768e+06
   27232  213168  371785  1.95795e+06
   27236  214246  374182  1.9715e+06
   27241  215258  376656  1.98546e+06
   27244.9  216008  378487  1.99592e+06
   27249.9  217187  381199  2.01143e+06
   27253.9  218210  383468  2.02423e+06
   27258.9  218897  385268  2.03444e+06
   27262.9  219940  387414  2.04666e+06
   27267.9  220855  389484  2.05842e+06
   27272.9  221707  391440  2.0696e+06
   27276.9  222693  393542  2.08142e+06
   27281.8  223364  395180  2.09078e+06
   27285.8  224597  397513  2.10392e+06
   27290.8  225201  398705  2.11074e+06
   27295.8  226270  400494  2.12106e+06
   27299.8  227176  402078  2.13014e+06
   27304.8  227916  403588  2.13865e+06
   27309.8  229028  405899  2.15188e+06
   27314.9  229857  407975  2.16391e+06
   27318.9  230904  410384  2.17768e+06
   27323.9  231764  412628  2.19079e+06
   27328.9  232516  414659  2.2025e+06
   27333.9  233520  416937  2.21567e+06
   27338.9  234291  418740  2.22614e+06
   27343.9  235198  420704  2.23757e+06
   27347.9  236221  422768  2.24916e+06
   27353  237011  424457  2.25895e+06
   27358  237950  426319  2.27001e+06
   27363  238893  428254  2.28117e+06
   27368  239795  430112  2.29198e+06
   27373.1  240188  431185  2.29828e+06
   27378.1  240836  432698  2.30695e+06
   27383.1  241658  434454  2.31743e+06
   27388.1  242333  436122  2.32717e+06
   27393.2  243324  438458  2.3409e+06
   27398.2  244115  440652  2.35369e+06
   27403.2  244922  442976  2.36738e+06
   27408.3  245703  445156  2.38019e+06
   27413.3  246302  446858  2.39038e+06
   27419.4  247017  448703  2.40148e+06
   27424.4  247905  450719  2.41303e+06
   27429.5  248578  452254  2.42237e+06
   27434.5  249272  453857  2.43188e+06
   27439.6  250092  455714  2.44281e+06
   27444.6  250870  457480  2.45324e+06
   27450.7  251706  459355  2.46464e+06
   27455.8  252630  461241  2.47605e+06
   27460.8  253180  462559  2.48389e+06
   27465.9  254053  464444  2.49505e+06
   27472  254298  465402  2.50109e+06
   27477  255278  467565  2.514e+06
   27482.1  256186  469680  2.52667e+06
   27488.2  256792  471507  2.53813e+06
   27493.2  257641  473692  2.55127e+06
   27499.3  257974  475220  2.56052e+06
   27504.4  259041  477707  2.57544e+06
   27509.5  259777  479541  2.58633e+06
   27515.6  260196  480855  2.5948e+06
   27520.7  261077  482833  2.60659e+06
   27526.8  261433  483978  2.61403e+06
   27531.8  262196  485712  2.62455e+06
   27538  262709  487096  2.63328e+06
   27543  263212  488438  2.64129e+06
   27549.2  263802  489900  2.65087e+06
   27554.2  264617  491901  2.66287e+06
   27560.4  265143  493512  2.67327e+06
   27565.5  265232  494368  2.67874e+06
   27571.6  266241  496867  2.69416e+06
   27577.7  266658  498368  2.70382e+06
   27582.8  267005  499658  2.71194e+06
   27588.9  267435  501067  2.72117e+06
   27595.1  268195  503146  2.73398e+06
   27600.2  268510  504290  2.74134e+06
   27606.3  269077  505909  2.75178e+06
   27612.5  269589  507446  2.76156e+06
   27618.6  270170  508962  2.77164e+06
   27623.7  270663  510347  2.78046e+06
   27629.9  271186  511714  2.78952e+06
   27636  271584  512901  2.79753e+06
   27642.2  271796  513799  2.80364e+06
   27647.3  272841  516104  2.81798e+06
   27653.5  273262  517515  2.82735e+06
   27659.6  273843  519309  2.83897e+06
   27665.8  274255  520834  2.84906e+06
   27671.9  274549  522051  2.8573e+06
   27678.1  275088  523657  2.86787e+06
   27684.3  275611  525263  2.87833e+06
   27690.5  276268  527107  2.89032e+06
   27696.6  276590  528435  2.89911e+06
   27702.8  276997  529815  2.90865e+06
   27709  277266  531056  2.91708e+06
   27715.2  277790  532629  2.92748e+06
   27721.4  278282  534115  2.93741e+06
   27727.6  278573  535192  2.94508e+06
   27733.7  279239  536899  2.95649e+06
   27739.9  279366  537682  2.96232e+06
   27746.1  279497  538421  2.96803e+06
   27752.3  279890  539696  2.97671e+06
   27758.5  280294  541013  2.98591e+06
   27764.8  280706  542496  2.99588e+06
   27771  280978  543841  3.00534e+06
   27778.2  280795  544449  3.0106e+06
   27784.4  280489  544487  3.01244e+06
   27790.6  280108  544288  3.01281e+06
   27796.9  280751  546186  3.02532e+06
   27803.1  281196  547700  3.0358e+06
   27810.4  281124  548314  3.04114e+06
   27816.6  280318  547174  3.03598e+06
   27822.8  280661  548355  3.04445e+06
   27829.1  282350  552211  3.06876e+06
   27836.3  283423  554879  3.08625e+06