File: data/Pt/pt_metal_rt.xdi
# XDI/1.0 GSE/1.0
# Column.1: energy eV
# Column.2: time
# Column.3: itrans
# Column.4: i0
# Element.edge: L3
# Element.symbol: Pt
# Scan.edge_energy: 11563.0
# Mono.name: Si 111
# Mono.d_spacing: 3.13555
# Beamline.name: 13-ID-C
# Beamline.collimation: none
# Beamline.harmonic_rejection: detuned
# Facility.name: APS
# Facility.energy: 7.00 GeV
# Facility.xray_source: APS undulator A
# Scan.start_time: 2001-06-27T04:10:45
# Detector.I0: 10cm  N2
# Detector.I1: 10cm  N2
# Sample.name: Pt metal foil
# Sample.prep: standard foil (Joe Wong boxed set)
# ///
# room temperature
# measured at beamline 13-ID-C
# vert slits = 0.3 x 0.3mm (at ~50m)
#----
#   energy    time      itrans        i0
    11364.00    1.00    332768.1    56237.70
    11374.00    1.00    310258.1    52281.70
    11384.00    1.00    291573.1    48899.70
    11394.00    1.00    287939.1    48023.70
    11404.00    1.00    293120.1    48672.70
    11414.00    1.00    288352.1    47660.70
    11424.00    1.00    293538.1    48282.70
    11434.00    1.00    293113.1    47988.70
    11444.00    1.00    293874.1    47946.70
    11454.00    1.00    303829.1    49355.70
    11464.00    1.00    299680.1    48412.70
    11474.00    1.00    305460.1    49213.70
    11484.00    1.00    309614.1    49718.70
    11494.00    1.00    311868.1    49958.70
    11504.00    1.00    309855.1    49579.70
    11514.00    1.00    311149.1    49809.70
    11524.00    1.00    311887.1    50213.70
    11534.00    1.00    304315.1    49798.70
    11544.00    1.00    288807.1    49522.70
    11544.50    1.00    287514.1    49465.70
    11545.00    1.00    284429.1    49112.70
    11545.50    1.00    283303.1    49197.70
    11546.00    1.00    282014.1    49210.70
    11546.50    1.00    281850.1    49467.70
    11547.00    1.00    280767.1    49577.70
    11547.50    1.00    278583.1    49491.70
    11548.00    1.00    278290.1    49835.70
    11548.50    1.00    272938.1    49233.70
    11549.00    1.00    272145.1    49445.70
    11549.50    1.00    269273.1    49367.70
    11550.00    1.00    267897.1    49616.70
    11550.50    1.00    264526.1    49547.70
    11551.00    1.00    259535.1    49173.70
    11551.50    1.00    256973.1    49395.70
    11552.00    1.00    253467.1    49461.70
    11552.50    1.00    249049.1    49339.70
    11553.00    1.00    245026.1    49481.70
    11553.50    1.00    240842.1    49554.70
    11554.00    1.00    235515.1    49670.70
    11554.50    1.00    228585.1    49626.70
    11555.00    1.00    220615.1    49202.70
    11555.50    1.00    214433.1    49639.70
    11556.00    1.00    204017.1    48986.70
    11556.50    1.00    195556.1    49382.70
    11557.00    1.00    186180.1    49849.70
    11557.50    1.00    174244.1    49649.70
    11558.00    1.00    160335.1    49594.70
    11558.50    1.00    144379.1    49465.70
    11559.00    1.00    127358.1    48848.70
    11559.50    1.00    110696.1    49622.70
    11560.00    1.00    95184.10    49602.70
    11560.50    1.00    76342.10    49799.70
    11561.00    1.00    58616.10    49678.70
    11561.50    1.00    44476.10    49548.70
    11562.00    1.00    31563.10    49480.70
    11562.50    1.00    23053.10    49726.70
    11563.00    1.00    16410.10    49015.70
    11563.50    1.00    12883.10    49676.70
    11564.00    1.00    11388.10    49760.70
    11564.50    1.00    10865.10    49664.70
    11565.00    1.00    11108.10    49399.70
    11565.50    1.00    12009.10    49463.70
    11566.00    1.00    13381.10    49872.70
    11566.50    1.00    14508.10    49512.70
    11567.00    1.00    16054.10    49597.70
    11567.50    1.00    17449.10    49805.70
    11568.00    1.00    18606.10    49267.70
    11568.50    1.00    19811.10    49547.70
    11569.00    1.00    20947.10    49480.70
    11569.50    1.00    21877.10    49348.70
    11570.00    1.00    22652.10    49278.70
    11570.50    1.00    23700.10    49588.70
    11571.00    1.00    24613.10    49971.70
    11571.50    1.00    24994.10    49231.70
    11572.00    1.00    25559.10    49167.70
    11572.50    1.00    26339.10    49805.70
    11573.00    1.00    26217.10    48966.70
    11573.50    1.00    26636.10    49517.70
    11574.00    1.00    26469.10    49321.70
    11574.50    1.00    26546.10    49861.70
    11575.00    1.00    25812.10    49071.70
    11575.50    1.00    25636.10    49631.70
    11576.00    1.00    25294.10    49878.70
    11576.50    1.00    24710.10    49777.70
    11577.00    1.00    24246.10    49752.70
    11577.50    1.00    23738.10    49549.70
    11578.00    1.00    23633.10    49952.70
    11578.50    1.00    23250.10    49410.70
    11579.00    1.00    23332.10    49434.70
    11579.50    1.00    23627.10    49584.70
    11580.00    1.00    24078.10    49637.70
    11580.50    1.00    24466.10    49404.70
    11581.00    1.00    24905.10    48902.70
    11581.50    1.00    25977.10    49638.70
    11582.00    1.00    26613.10    49932.70
    11582.50    1.00    26910.10    49659.70
    11583.00    1.00    27110.10    49572.70
    11583.50    1.00    27281.10    49477.70
    11584.00    1.00    27326.10    49539.70
    11584.50    1.00    27317.10    49505.70
    11585.00    1.00    27159.10    49279.70
    11585.50    1.00    27380.10    49806.70
    11586.00    1.00    27053.10    49465.70
    11586.50    1.00    27052.10    49791.70
    11587.00    1.00    26496.10    49383.70
    11587.50    1.00    26188.10    49530.70
    11588.00    1.00    25552.10    49382.70
    11588.50    1.00    24949.10    49451.70
    11589.00    1.00    24094.10    49014.70
    11589.98    1.00    22751.10    49245.70
    11590.99    1.00    21456.10    49150.70
    11592.01    1.00    20725.10    49454.70
    11593.05    1.00    20615.10    49480.70
    11594.11    1.00    21210.10    49541.70
    11595.19    1.00    21860.10    49155.70
    11596.29    1.00    22916.10    49319.70
    11597.41    1.00    23882.10    49481.70
    11598.55    1.00    24366.10    49140.70
    11599.70    1.00    24749.10    49173.70
    11600.88    1.00    25008.10    49241.70
    11602.07    1.00    25584.10    49781.70
    11603.29    1.00    26030.10    49634.70
    11604.52    1.00    26541.10    49578.70
    11605.77    1.00    26927.10    49585.70
    11607.04    1.00    26987.10    49723.70
    11608.33    1.00    26478.10    49488.70
    11609.64    1.00    25988.10    49968.70
    11610.96    1.00    24839.10    49164.70
    11612.31    1.00    24440.10    50059.70
    11613.67    1.00    23312.10    49449.70
    11615.06    1.00    22368.10    49013.70
    11616.46    1.00    22213.10    49951.70
    11617.88    1.00    21740.10    49559.70
    11619.33    1.00    21759.10    49531.70
    11620.79    1.00    22042.10    49606.70
    11622.26    1.00    22485.10    49758.70
    11623.76    1.00    22705.10    49542.70
    11625.28    1.00    22881.10    49166.70
    11626.82    1.00    23652.10    49998.70
    11628.37    1.00    23738.10    49510.70
    11629.95    1.00    24326.10    50237.70
    11631.54    1.00    24307.10    49716.70
    11633.15    1.00    24621.10    49847.70
    11634.78    1.00    24789.10    49433.70
    11636.43    1.00    25643.10    50132.70
    11638.10    1.00    25967.10    49666.70
    11639.79    1.00    26538.10    49614.70
    11641.50    1.00    27017.10    49615.70
    11643.23    1.00    27454.10    49796.70
    11644.97    1.00    27599.10    49650.70
    11646.74    1.00    27875.10    49917.70
    11648.52    1.00    27723.10    49715.70
    11650.32    1.00    27376.10    49468.70
    11652.14    1.00    27062.10    49748.70
    11653.99    1.00    26536.10    49888.70
    11655.84    1.00    25840.10    49763.70
    11657.72    1.00    24789.10    48656.70
    11659.62    1.00    25189.10    50221.70
    11661.54    1.00    24894.10    50011.70
    11663.47    1.00    24913.10    50100.70
    11665.43    1.00    24710.10    49572.70
    11667.40    1.00    24646.10    49251.70
    11669.40    1.00    25119.10    49858.70
    11671.41    1.00    24923.10    49209.70
    11673.44    1.00    25271.10    49564.70
    11675.49    1.00    25371.10    49588.70
    11677.56    1.00    25386.10    49536.70
    11679.65    1.00    25458.10    49840.70
    11681.75    1.00    25360.10    50023.70
    11683.88    1.00    25171.10    50032.70
    11686.02    1.00    24661.10    49292.70
    11688.19    1.00    24852.10    49687.70
    11690.37    1.00    24791.10    49337.70
    11692.57    1.00    25273.10    49659.70
    11694.79    1.00    25926.10    50012.70
    11697.03    1.00    26061.10    49158.70
    11699.29    1.00    26953.10    49645.70
    11701.57    1.00    27584.10    49702.70
    11703.87    1.00    27731.10    49161.70
    11706.18    1.00    27829.10    48971.70
    11708.52    1.00    28159.10    49572.70
    11710.87    1.00    27983.10    49644.70
    11713.25    1.00    27610.10    49501.70
    11715.64    1.00    27244.10    49569.70
    11718.05    1.00    26920.10    49615.70
    11720.48    1.00    26230.10    48950.70
    11722.93    1.00    26285.10    49527.70
    11725.40    1.00    25992.10    49342.70
    11727.89    1.00    25975.10    49604.70
    11730.39    1.00    25795.10    49522.70
    11732.92    1.00    25663.10    49364.70
    11735.46    1.00    25760.10    49487.70
    11738.03    1.00    25975.10    49718.70
    11740.61    1.00    25813.10    49222.70
    11743.21    1.00    25841.10    49292.70
    11745.83    1.00    26104.10    50016.70
    11748.47    1.00    25507.10    49283.70
    11751.13    1.00    25804.10    50247.70
    11753.81    1.00    25286.10    49426.70
    11756.50    1.00    25508.10    49510.70
    11759.22    1.00    26189.10    49942.70
    11761.95    1.00    26741.10    49762.70
    11764.71    1.00    27521.10    49971.70
    11767.48    1.00    28158.10    50243.70
    11770.27    1.00    28178.10    49707.70
    11773.08    1.00    28448.10    49822.70
    11775.91    1.00    28648.10    49827.70
    11778.76    1.00    28339.10    49147.70
    11781.63    1.00    28538.10    49415.70
    11784.52    1.00    28827.10    49854.70
    11787.42    1.00    28953.10    50031.70
    11790.35    1.00    28478.10    49285.70
    11793.29    1.00    28504.10    49588.70
    11796.25    1.00    28281.10    49557.70
    11799.24    1.00    27938.10    49516.70
    11802.24    1.00    27556.10    49613.70
    11805.26    1.00    27154.10    49710.70
    11808.30    1.00    26457.10    49183.70
    11811.35    1.00    26290.10    49298.70
    11814.43    1.00    26243.10    49497.70
    11817.53    1.00    26484.10    49837.70
    11820.64    1.00    26386.10    49217.70
    11823.78    1.00    26806.10    49345.70
    11826.93    1.00    27753.10    50242.70
    11830.10    1.00    28045.10    49705.70
    11833.29    1.00    29003.10    50184.70
    11836.50    1.00    29275.10    49693.70
    11839.73    1.00    29208.10    48963.70
    11842.98    1.00    29497.10    49128.70
    11846.25    1.00    29644.10    49378.70
    11849.54    1.00    30039.10    50242.70
    11852.84    1.00    29809.10    50138.70
    11856.16    1.00    29636.10    49824.70
    11859.51    1.00    29464.10    49313.70
    11862.87    1.00    29811.10    49511.70
    11866.25    1.00    29977.10    49476.70
    11869.65    1.00    29914.10    49334.70
    11873.07    1.00    30010.10    49741.70
    11876.51    1.00    29490.10    49311.70
    11879.97    1.00    29217.10    49274.70
    11883.44    1.00    29284.10    49870.70
    11886.94    1.00    28572.10    49153.70
    11890.45    1.00    28731.10    49764.70
    11893.99    1.00    28835.10    50086.70
    11897.54    1.00    28819.10    49893.70
    11901.11    1.00    29009.10    49770.70
    11904.70    1.00    29314.10    49510.70
    11908.31    1.00    30090.10    49813.70
    11911.94    1.00    30519.10    49604.70
    11915.59    1.00    30897.10    49527.70
    11919.26    1.00    31227.10    49559.70
    11922.94    1.00    31069.10    49153.70
    11926.65    1.00    31601.10    50013.70
    11930.37    1.00    31500.10    49939.70
    11934.11    1.00    31490.10    50000.70
    11937.88    1.00    31443.10    49937.70
    11941.66    1.00    31608.10    50193.70
    11945.46    1.00    31191.10    49391.70
    11949.27    1.00    31899.10    50172.70
    11953.11    1.00    32080.10    50118.70
    11956.97    1.00    32205.10    50145.70
    11960.85    1.00    31864.10    49679.70
    11964.74    1.00    32091.10    50294.70
    11968.65    1.00    31540.10    49762.70
    11972.59    1.00    31443.10    49737.70
    11976.54    1.00    31424.10    49728.70
    11980.51    1.00    31484.10    49824.70
    11984.50    1.00    31314.10    49506.70
    11988.51    1.00    31442.10    49702.70
    11992.54    1.00    31843.10    50186.70
    11996.58    1.00    31854.10    49904.70
    12000.65    1.00    32091.10    49786.70
    12004.74    1.00    32283.10    49376.70
    12008.84    1.00    32936.10    49517.70
    12012.96    1.00    33255.10    49193.70
    12017.11    1.00    33856.10    49426.70
    12021.27    1.00    34096.10    49468.70
    12025.45    1.00    34190.10    49479.70
    12029.65    1.00    34141.10    49434.70
    12033.87    1.00    33979.10    49271.70
    12038.10    1.00    32054.10    46602.70
    12042.36    1.00    35177.10    51218.70
    12046.63    1.00    34624.10    50490.70
    12050.93    1.00    34297.10    50047.70
    12055.24    1.00    34253.10    50100.70
    12059.58    1.00    34194.10    50037.70
    12063.93    1.00    34197.10    50013.70
    12068.30    1.00    34121.10    49787.70
    12072.69    1.00    34262.10    49942.70
    12077.10    1.00    33991.10    49448.70
    12081.52    1.00    34443.10    49978.70
    12085.97    1.00    34387.10    49590.70
    12090.44    1.00    35123.10    50220.70
    12094.92    1.00    35469.10    50261.70
    12099.42    1.00    35779.10    50287.70
    12103.95    1.00    36253.10    50541.70
    12108.49    1.00    36037.10    49910.70
    12113.05    1.00    36169.10    49677.70
    12117.63    1.00    36541.10    49815.70
    12122.23    1.00    36847.10    49816.70
    12126.85    1.00    37037.10    49720.70
    12131.48    1.00    37655.10    50268.70
    12136.14    1.00    37673.10    50152.70
    12140.81    1.00    37302.10    49653.70
    12145.51    1.00    37635.10    50095.70
    12150.22    1.00    36874.10    49124.70
    12154.95    1.00    37180.10    49501.70
    12159.70    1.00    37538.10    49998.70
    12164.47    1.00    37204.10    49607.70
    12169.26    1.00    37235.10    49672.70
    12174.07    1.00    37059.10    49467.70
    12178.90    1.00    37512.10    49964.70
    12183.74    1.00    37005.10    49237.70
    12188.61    1.00    37251.10    49403.70
    12193.49    1.00    37719.10    49791.70
    12198.40    1.00    37889.10    49711.70
    12203.32    1.00    37696.10    49107.70
    12208.26    1.00    38192.10    49307.70
    12213.22    1.00    38783.10    49662.70
    12218.20    1.00    39080.10    49653.70
    12223.20    1.00    39211.10    49429.70
    12228.21    1.00    39472.10    49506.70
    12233.25    1.00    39896.10    49793.70
    12238.30    1.00    40248.10    49922.70
    12243.38    1.00    40431.10    49844.70
    12248.47    1.00    40239.10    49311.70
    12253.58    1.00    41001.10    49846.70
    12258.72    1.00    41077.10    49623.70
    12263.87    1.00    41451.10    49862.70
    12269.04    1.00    41053.10    49235.70
    12274.22    1.00    41235.10    49390.70
    12279.43    1.00    41496.10    49703.70
    12284.66    1.00    41671.10    50010.70
    12289.90    1.00    41117.10    49392.70
    12295.17    1.00    41587.10    49968.70
    12300.45    1.00    41043.10    49379.70
    12305.75    1.00    41545.10    49840.70
    12311.08    1.00    40648.10    48556.70
    12316.42    1.00    42317.10    50277.70
    12321.78    1.00    42452.10    50066.70
    12327.16    1.00    42341.10    49525.70
    12332.55    1.00    43510.10    50365.70
    12337.97    1.00    43747.10    50164.70
    12343.41    1.00    43462.10    49485.70
    12348.86    1.00    44396.10    50238.70
    12354.33    1.00    44116.10    49666.70
    12359.83    1.00    44474.10    49761.70
    12365.34    1.00    44470.10    49550.70
    12370.87    1.00    44837.10    49689.70
    12376.42    1.00    44925.10    49532.70
    12381.99    1.00    45202.10    49592.70
    12387.58    1.00    45669.10    49876.70
    12393.18    1.00    46164.10    50182.70
    12398.81    1.00    45809.10    49597.70
    12404.45    1.00    45998.10    49670.70
    12410.12    1.00    45664.10    49146.70
    12415.80    1.00    45954.10    49365.70
    12421.50    1.00    46181.10    49455.70
    12427.22    1.00    46106.10    49263.70
    12432.96    1.00    46454.10    49543.70
    12438.72    1.00    46540.10    49495.70
    12444.50    1.00    46904.10    49683.70
    12450.30    1.00    47116.10    49683.70
    12456.12    1.00    47162.10    49505.70
    12461.95    1.00    47905.10    49999.70
    12467.80    1.00    48233.10    50024.70
    12473.68    1.00    48272.10    49703.70
    12479.57    1.00    47857.10    48945.70
    12485.48    1.00    48239.10    49021.70
    12491.41    1.00    49020.10    49432.70
    12497.36    1.00    48834.10    48916.70
    12503.33    1.00    49371.10    49148.70
    12509.32    1.00    49853.10    49356.70
    12515.32    1.00    49795.10    49027.70
    12521.35    1.00    50421.10    49406.70
    12527.39    1.00    50489.10    49228.70
    12533.46    1.00    51544.10    50043.70
    12539.54    1.00    51550.10    49838.70
    12545.64    1.00    52549.10    50617.70
    12551.76    1.00    52446.10    50325.70
    12557.90    1.00    53018.10    50639.70
    12564.06    1.00    52974.10    50468.70
    12570.24    1.00    52594.10    49919.70
    12576.43    1.00    52052.10    49284.70
    12582.65    1.00    52572.10    49557.70
    12588.88    1.00    52667.10    49466.70
    12595.14    1.00    53087.10    49590.70
    12601.41    1.00    53343.10    49561.70
    12607.70    1.00    53888.10    49751.70
    12614.01    1.00    54140.10    49725.70
    12620.34    1.00    54767.10    49986.70
    12626.69    1.00    55056.10    49947.70
    12633.06    1.00    55098.10    49706.70
    12639.45    1.00    55574.10    49796.70
    12645.85    1.00    55752.10    49641.70
    12652.28    1.00    56630.10    50121.70
    12658.72    1.00    56146.10    49405.70
    12665.18    1.00    56638.10    49544.70
    12671.66    1.00    56604.10    49211.70
    12678.17    1.00    57379.10    49671.70
    12684.69    1.00    57880.10    49874.70
    12691.22    1.00    58218.10    49905.70
    12697.78    1.00    57767.10    49313.70
    12704.36    1.00    58656.10    49892.70
    12710.96    1.00    58542.10    49583.70
    12717.57    1.00    58724.10    49532.70
    12724.20    1.00    59363.10    49880.70
    12730.86    1.00    58938.10    49292.70
    12737.53    1.00    59808.10    49769.70
    12744.22    1.00    59998.10    49703.70
    12750.93    1.00    60928.10    50209.70
    12757.66    1.00    60505.10    49597.70
    12764.41    1.00    60654.10    49441.70
    12771.18    1.00    61688.10    49983.70
    12777.96    1.00    62201.10    50114.70
    12784.77    1.00    62099.10    49798.70
    12791.59    1.00    62664.10    49955.70
    12798.43    1.00    62393.10    49469.70