File: data/as2o3_100K_scan2.xdi
# XDI/1.0
# Column.1: energy eV
# Column.2: i0
# Column.3: itrans
# Column.4: irefer
# Beamline.name: SSRL 2-3
# Beamline.notes: vert slits = 0.6mm
# Detector.I0: N2 15cm
# Detector.I1: Ar 30cm
# Detector.I2: Ar 15cm
# Element.edge: K
# Element.symbol: As
# Mono.d_spacing: 3.13550
# Mono.name: Si(111)
# Mono.notes: unfocused, detuned 75%, clockwise at E=12000eV
# Sample.formula: As2O3
# Sample.name: As2O3 arsenious oxide
# Sample.prep: powder on tape (2 layers)
# Sample.reference: GaAs powder
# Sample.temperature: 100K
# Scan.start_time: 1997-04-19 23:43:03
# ///
#    Note: mono d_spacing is nominal!
#     exafs to K16, GaAs in IR
#     413  E XMU XMUR I0
#-------------
#   energy   i0   itrans  irefer
   11634.9  511889  94191.5  38431
   11644.9  509407  94068.5  38603
   11654.9  506843  93923.5  38772
   11665  503714  93686.5  38898
   11675.1  501933  93696.5  39134
   11684.9  499519  93584.5  39328
   11695  496501  93358.5  39458
   11705.1  494305  93287.5  39656
   11714.9  491475  93083.5  39793
   11725.1  488895  92909.5  39949
   11735  487178  92898.5  40173
   11744.9  484704  92760.5  40346
   11755.1  482116  92567.5  40501
   11765  479583  92401.5  40663
   11775  476765  92171.5  40797
   11784.9  474789  92075.5  40973
   11794.9  472307  91864.5  41114
   11804.9  470307  91721.5  41264
   11814.9  467288  91376.5  41329
   11824.9  465096  91098.5  41403
   11835  462686  90647.5  41392
   11845.1  460789  89925.5  41172
   11845.4  460139  89784.5  41094
   11846  459538  89630.5  41031
   11846.6  459797  89628.5  41036
   11846.9  459763  89578.5  41005
   11847.5  459459  89467.5  40965
   11848.1  459012  89330.5  40890
   11848.4  458824  89274.5  40869
   11849  458575  89161.5  40821
   11849.6  458278  89014.5  40734
   11849.9  457946  88913.5  40693
   11850.6  458144  88876.5  40670
   11850.9  458280  88846.5  40640
   11851.5  457817  88657.5  40556
   11852.1  457796  88534.5  40488
   11852.4  458525  88621.5  40514
   11853  458294  88449.5  40431
   11853.6  458315  88295.5  40345
   11853.9  457988  88155.5  40267
   11854.5  458780  88114.5  40220
   11855.1  458365  87848.5  40060
   11855.4  458152  87707.5  39991
   11856.1  457956  87425.5  39822
   11856.4  458110  87337.5  39756
   11857  458072  87024.5  39572
   11857.6  457620  86589.5  39318
   11857.9  457334  86371.5  39173
   11858.5  457659  86016.5  38937
   11859.1  457192  85455.5  38586
   11859.4  457076  85133.5  38392
   11860  457528  84566.5  38003
   11860.6  457536  83849.5  37503
   11861  457321  83412.5  37212
   11861.6  456716  82312.5  36467
   11861.9  456562  81685.5  36044
   11862.5  456372  80241.5  34967
   11863.1  455919  78375.5  33578
   11863.4  455453  77428.5  32868
   11864  455378  74953.5  30941
   11864.6  455509  71623.5  28418
   11864.9  455380  69543.5  26924
   11865.5  455101  64626.5  23702
   11865.9  455357  62050.5  22155
   11866.5  455697  55066.5  18450
   11867.1  455434  47158.5  14859
   11867.4  455186  42683.5  13041
   11868  455590  34167.5  9903
   11868.6  455799  26485.5  7367
   11868.9  455510  23927.5  6570
   11869.5  454490  19330.5  5202
   11870.1  454853  17251.5  4618
   11870.5  454796  17141.5  4592
   11871.1  454378  18343.5  4955
   11871.4  454154  19220.5  5210
   11872  453728  21779.5  5966.01
   11872.6  453192  24449.5  6768
   11872.9  453195  25829.5  7190
   11873.5  453183  28414.5  8006
   11874.1  453509  30894.5  8831.99
   11874.4  453376  31996.5  9206
   11875.1  453289  34471.5  10091
   11875.4  453355  35662.5  10533
   11876  453605  37810.5  11353
   11876.6  453295  39324.5  11986
   11876.9  452773  39757.5  12177
   11877.5  453070  40301.5  12479
   11878.1  453003  39989.5  12485
   11878.4  452802  39528.5  12375
   11879  452518  38313.5  12067
   11879.4  452555  37680.5  11890
   11880  453087  36297.5  11503
   11880.6  452475  35107.5  11169
   11880.9  452032  34677.5  11045
   11881.5  452402  34378.5  10964
   11882.1  452015  34539.5  11021
   11882.4  451937  34735.5  11088
   11883  451430  35320.5  11268
   11883.7  451353  36010.5  11483
   11884  451134  36326.5  11584
   11884.6  450875  36873.5  11762
   11884.9  450356  37038.5  11816
   11885.5  450519  37479.5  11972
   11886.1  450848  37924.5  12128
   11886.4  450273  38096.5  12188
   11887  450735  38618.5  12366
   11887.6  450924  39158.5  12541
   11888  451078  39405.5  12618
   11888.6  450792  39896.5  12773
   11888.9  450323  40105.5  12841
   11889.5  450819  40628.5  13000
   11890.1  451133  41136.5  13148
   11890.4  450783  41328.5  13209
   11891  450065  41882.5  13387
   11891.6  449915  42533.5  13589
   11892  450080  42913.5  13720
   11892.6  449871  43577.5  13952
   11892.9  449880  43865.5  14048
   11893.5  450119  44429.5  14262
   11894.1  449762  44762.5  14418
   11894.4  449461  44881.5  14480
   11895  449629  45062.5  14586
   11895.6  449730  45152.3  14671.8
   11896.3  449421  45160.5  14715
   11896.9  449104  45170.3  14746.8
   11897.5  449148  45225.6  14763.2
   11898.4  449107  45310.4  14783
   11899  449477  45402.6  14793.3
   11899.7  448947  45413.4  14779.2
   11900.6  449804  45666.8  14833.6
   11901.2  450112  45821.6  14880.5
   11902.1  450042  46053.9  14947
   11903  450221  46294.7  15038.9
   11903.7  450526  46459.1  15108.4
   11904.6  450689  46634.9  15184.4
   11905.5  450936  46812.3  15255.9
   11906.4  451109  46971.1  15337.9
   11907.4  451584  47115.5  15401.5
   11908.3  452313  47133.4  15413.6
   11909.2  452492  46920.7  15346.1
   11910.1  453098  46598.6  15238.3
   11911.1  453403  46133  15069.9
   11912.3  454883  45556  14864
   11913.2  455308  45121.4  14705.7
   11914.2  455769  44723.3  14566.9
   11915.4  456321  44414.7  14473.6
   11916.3  457695  44418.7  14496.8
   11917.6  458086  44396.1  14557.6
   11918.8  458432  44419.1  14628.8
   11919.7  459374  44440.5  14688.6
   11921  460227  44298.5  14702.9
   11922.2  461659  44052  14642.7
   11923.4  462585  43678  14543.1
   11924.7  463452  43299.4  14432.9
   11925.9  464685  43028.5  14359.3
   11927.1  466324  42949  14330.2
   11928.4  467194  42934  14319.6
   11929.6  467835  42962.5  14314.6
   11930.9  469333  43022.6  14309
   11932.4  470809  43036.1  14273
   11933.7  471977  43120.1  14260.5
   11934.9  473374  43341.7  14292.5
   11936.4  474138  43563.8  14324.1
   11938  475520  43735.4  14365.1
   11939.2  476701  43781.4  14383.7
   11940.8  477072  43631  14355.8
   11942.3  477863  43457.1  14330.4
   11943.6  479894  43446.7  14351.6
   11945.1  482547  43563.8  14412.2
   11946.7  485763  43900.4  14546.4
   11948.2  486675  44243.5  14688.1
   11949.8  489019  44840.2  14910.3
   11951.3  490120  45327.3  15095
   11952.9  491586  45732  15260.3
   11954.8  493653  46126.1  15438
   11956.3  495817  46447.8  15592.3
   11957.9  497580  46775  15729.1
   11959.7  499202  47217.7  15889.4
   11961.3  500626  47596.9  16004.3
   11963.2  502582  47995.5  16126.7
   11964.7  504742  48306.7  16232.5
   11966.6  507312  48661.4  16374
   11968.5  508927  48976.7  16536.9
   11970  510937  49327.4  16737.3
   11971.9  512898  49630.6  16946.3
   11973.8  514608  49885.4  17132.8
   11975.6  517031  50231.6  17323.8
   11977.5  518795  50568.4  17482.3
   11979.4  521811  51112.6  17680.3
   11981.3  523526  51630.4  17879.9
   11983.1  524992  52129.7  18062
   11985  525321  52433.5  18142.6
   11987.2  527980  52862.8  18253.7
   11989.1  531757  53317.6  18370.3
   11991.3  535336  53724.9  18432.5
   11993.2  537742  54029.8  18478.2
   11995.3  539161  54171.1  18458.4
   11997.2  542077  54377.9  18485.1
   11999.4  544902  54455.2  18499.3
   12001.3  547201  54457.1  18507.1
   12003.5  548771  54301.5  18492.3
   12005.7  551937  54291.3  18534.1
   12007.9  553771  54141.7  18527.4
   12010.1  555645  54048.6  18537.3
   12012.3  558806  54232  18661.7
   12014.5  561862  54532.9  18824.5
   12016.7  565154  54927.3  19012.9
   12018.9  568665  55369.1  19216.8
   12021.1  570382  55583.6  19350.2
   12023.6  573873  55988.5  19561.2
   12025.8  576474  56283.9  19725.7
   12028  578894  56518.9  19862.6
   12030.5  581588  56727.3  19988.2
   12032.7  584903  57028.3  20140.2
   12035.3  587832  57392.7  20314.7
   12037.8  590956  57834.8  20527.8
   12040  593189  58175.2  20683.4
   12042.5  595660  58559.2  20867.5
   12045  599226  59035.7  21082.1
   12047.6  601894  59426.7  21271.3
   12050.1  605586  59945.3  21492.9
   12052.6  607896  60372.3  21651.1
   12055.2  609112  60653.8  21725.8
   12057.7  611951  61100.8  21870
   12060.2  617907  61822.4  22117.8
   12062.8  621634  62298.4  22320
   12065.3  624089  62544  22461.8
   12068.1  627434  62785.1  22589.1
   12070.7  631655  63109.6  22706.9
   12073.2  633994  63393.7  22789.3
   12076.1  636937  63965.3  22966.1
   12078.6  640889  64696.4  23208.5
   12081.5  645038  65466  23463.4
   12084.3  647258  66008.2  23645.8
   12086.9  652074  66703.8  23892.7
   12089.7  654606  67101.9  24066.2
   12092.6  658566  67590.5  24318.2
   12095.5  660771  67785.7  24475.7
   12098.3  664602  68093.3  24684.7
   12101.2  667217  68291.5  24841.2
   12104.1  671814  68821.1  25111.3
   12107  674580  69233.3  25331.8
   12109.8  678665  69842  25642.9
   12112.7  680786  70325.2  25914.5
   12115.9  686970  71232.9  26361.7
   12118.8  690269  71726.1  26634.3
   12121.6  694552  72228.8  26929.5
   12124.9  695634  72325  27048.2
   12127.7  700811  72896.8  27331.4
   12130.9  703530  73276  27538.1
   12133.8  707437  73814.8  27771.3
   12137  709574  74174  27922.1
   12140.2  715749  74866.8  28190.4
   12143.4  718130  75007  28228.2
   12146.3  722545  75316.8  28340.5
   12149.6  725933  75505.1  28417.3
   12152.8  729823  75720.9  28507.7
   12156  733132  75848.2  28572.6
   12159.2  737745  76225  28737
   12162.4  741885  76797.3  28994.9
   12165.6  744773  77399.1  29267.3
   12169.2  750060  78311.5  29673.3
   12172.4  753448  78979.3  29977.8
   12175.6  758011  79725.7  30334.8
   12178.9  761763  80399.5  30635.3
   12182.4  766119  81237.9  30995.4
   12185.7  770069  82004.7  31335.9
   12189.2  773359  82702.2  31669
   12192.5  778636  83500.1  32050.6
   12196  781666  83998.4  32325.7
   12199.6  785312  84522.3  32610.3
   12202.8  789627  85061.8  32880.5
   12206.4  792787  85434.6  33103.2
   12210  796878  85882.1  33366.3
   12213.5  801946  86431  33690.1
   12217.1  805225  86812.4  33954.3
   12220.7  809685  87341.4  34282
   12224.3  813750  87777.8  34566.3
   12227.8  816928  88120.8  34805.1
   12231.4  822224  88727.3  35126.4
   12235  824105  89083.2  35349.2
   12238.9  828008  89738.8  35699.6
   12242.5  831745  90488.7  36070.4
   12246.1  835651  91293.2  36448.8
   12250  840438  92201.3  36836.7
   12253.6  843207  92864.7  37128.1
   12257.5  848464  93829.8  37516.1
   12261.2  852689  94671.4  37896.6
   12265.1  856661  95407.3  38253.5
   12269  859419  95886.9  38502.1
   12272.6  864913  96554  38820.1
   12276.6  869428  97086.6  39118.6
   12280.5  872777  97503.6  39351.7
   12284.4  877234  98084.2  39652.3
   12288.4  881752  98590.3  39939.4
   12292.3  883756  98793.9  40126
   12296.3  889392  99418.9  40494.1
   12300.2  893904  99971.6  40811.8
   12304.2  896752  100363  41084.9
   12308.2  901071  100943  41427.6
   12312.1  906553  101712  41849.9
   12316.1  909928  102257  42180.6
   12320.4  914016  102950  42585.9
   12324.3  918430  103725  43023.6
   12328.7  921733  104441  43425.9
   12332.6  925581  105201  43870.7
   12336.6  929407  105930  44299.1
   12340.9  935908  106872  44821.9
   12345.2  938626  107344  45127.3
   12349.2  944073  108188  45567.2
   12353.5  947799  108912  45975.6
   12357.9  951431  109637  46390.5
   12362.2  955526  110410  46809
   12366.2  960657  111271  47274.9
   12370.5  963574  111868  47651.4
   12374.9  967493  112553  48052.4
   12379.2  971883  113218  48445
   12383.5  976722  113907  48827
   12387.9  979058  114326  49073.6
   12392.6  982401  114912  49443.6
   12396.9  987682  115731  49881.3
   12401.3  991178  116356  50240.4
   12405.6  995881  117105  50663
   12410.3  999345  117681  51019.2
   12414.7  1.00309e+06  118291  51400.9
   12419  1.00818e+06  119113  51867.1
   12423.8  1.00996e+06  119603  52224.8
   12428.1  1.01429e+06  120440  52714.1
   12432.8  1.01865e+06  121301  53249.8
   12437.6  1.02485e+06  122413  53871.1
   12441.9  1.02852e+06  123236  54386.9
   12446.7  1.03325e+06  124119  54925.2
   12451.4  1.03784e+06  124955  55475
   12456.1  1.03919e+06  125359  55798.4
   12460.5  1.04372e+06  126157  56306.3
   12465.3  1.04727e+06  126836  56764.7
   12470  1.05234e+06  127681  57288.6
   12474.7  1.05709e+06  128474  57806
   12479.5  1.06059e+06  129096  58226
   12484.2  1.06423e+06  129709  58665.4
   12489  1.0678e+06  130315  59047.5
   12494.1  1.07201e+06  130977  59510
   12498.9  1.07446e+06  131437  59846
   12503.6  1.07908e+06  132192  60324.5
   12508.4  1.08264e+06  132825  60755.6
   12513.5  1.08479e+06  133351  61137.2
   12518.3  1.09076e+06  134356  61732.3
   12523.4  1.09388e+06  135079  62219
   12528.2  1.09868e+06  136005  62802.1
   12533.4  1.10087e+06  136637  63255.8
   12538.1  1.10559e+06  137558  63817
   12543.3  1.10896e+06  138390  64361.7
   12548.1  1.11291e+06  139256  64913.9
   12553.2  1.11607e+06  140062  65452.7
   12558.4  1.11987e+06  140901  66004.9
   12563.6  1.12372e+06  141745  66569.7
   12568.7  1.12816e+06  142656  67174
   12573.5  1.13305e+06  143556  67762.8
   12578.7  1.13621e+06  144245  68266.1
   12583.9  1.13961e+06  144949  68803
   12589.1  1.14358e+06  145707  69348.4
   12594.2  1.14711e+06  146369  69857.3
   12599.4  1.15049e+06  147046  70373.7
   12605  1.15215e+06  147504  70809.7
   12610.2  1.15657e+06  148360  71421.1
   12615.4  1.15898e+06  148967  71898.1
   12620.6  1.16481e+06  150037  72618.6
   12625.8  1.1686e+06  150853  73223.6
   12631.3  1.16999e+06  151419  73699.2
   12636.6  1.1756e+06  152498  74409.2
   12642.1  1.17837e+06  153285  75018.8
   12647.4  1.18279e+06  154252  75675.9
   12652.9  1.18569e+06  155085  76272.5
   12658.2  1.18819e+06  155801  76811.6
   12663.8  1.19182e+06  156672  77440.3
   12669  1.1951e+06  157463  78035.4
   12674.6  1.19807e+06  158174  78590.1
   12680.2  1.20241e+06  159081  79238.4
   12685.8  1.2054e+06  159796  79799.1
   12691.1  1.21009e+06  160720  80467.4
   12696.7  1.21079e+06  161112  80889.1
   12702.3  1.21334e+06  161758  81451.4
   12708  1.21922e+06  162888  82227.2
   12713.6  1.21905e+06  163122  82568.5
   12719.3  1.22293e+06  163970  83237.3
   12724.9  1.22494e+06  164567  83759.8
   12730.6  1.23014e+06  165597  84524.6
   12736.2  1.23454e+06  166552  85252.1
   12741.9  1.23684e+06  167269  85852
   12747.9  1.24027e+06  168183  86569.5
   12753.6  1.2426e+06  168918  87204.4
   12759.2  1.24534e+06  169713  87839.9
   12764.9  1.24601e+06  170260  88377.9
   12771  1.25017e+06  171263  89168.4
   12776.7  1.25298e+06  172081  89848.4
   12782.4  1.25491e+06  172798  90466
   12788.4  1.25912e+06  173809  91272.1
   12794.1  1.26325e+06  174763  92011.7
   12800.2  1.26475e+06  175405  92615.8
   12806.3  1.26919e+06  176410  93410.4
   12812  1.27057e+06  176948  93942.6
   12818.1  1.27429e+06  177887  94723.3
   12824.2  1.27739e+06  178674  95402.5
   12829.9  1.27835e+06  179175  95922.2
   12836  1.2811e+06  179971  96595.4
   12842.1  1.28241e+06  180521  97157.2
   12848.2  1.28754e+06  181682  98059.5
   12854.4  1.29057e+06  182539  98798.3
   12860.5  1.29313e+06  183321  99527.5
   12866.3  1.29506e+06  184003  100139
   12872.4  1.29653e+06  184705  100777
   12878.6  1.30027e+06  185681  101599
   12885.1  1.30259e+06  186538  102377