File: data/as2o5_10K_scan1.xdi
# XDI/1.0
# Column.1: energy eV
# Column.2: i0
# Column.3: itrans
# Column.4: irefer
# Beamline.name: SSRL 2-3
# Beamline.notes: vert slits = 0.6mm
# Detector.I0: N2 15cm
# Detector.I1: Ar 30cm
# Detector.I2: Ar 15cm
# Element.edge: K
# Element.symbol: As
# Mono.d_spacing: 3.13550
# Mono.name: Si(111)
# Mono.notes: unfocused, detuned 75%, clockwise at E=12000eV
# Sample.formula: As2O5
# Sample.name: As2O5 arsenic (V) oxide
# Sample.prep: powder on tape (5 layers)
# Sample.reference: GaAs powder
# Sample.temperature: 10K
# Scan.start_time: 1997-04-19 18:40:39
# ///
#    Note: mono d_spacing is nominal!
#     exafs to K16, GaAs in IR
#     413  E XMU XMUR I0
#-------------
#   energy   i0   itrans  irefer
   11634.9  540374  96003.5  39417
   11644.9  538156  95937.5  39609
   11654.9  535092  95760.5  39783
   11665  532761  95688.5  39994
   11675.1  530232  95584.5  40185
   11684.9  527545  95446.5  40353
   11695  524671  95269.5  40509
   11705.1  521581  95066.5  40659
   11714.9  518899  94903.5  40815
   11725.1  516262  94760.5  40998
   11735  513383  94562.5  41140
   11744.9  510964  94460.5  41342
   11755.1  508808  94391.5  41545
   11765  505954  94196.5  41681
   11775  502989  93954.5  41824
   11784.9  500033  93708.5  41940
   11794.9  498264  93656.5  42168
   11804.9  496320  93561.5  42332
   11814.9  493540  93274.5  42449
   11824.9  491061  92969.5  42513
   11835  488232  92512.5  42503
   11845.1  485675  91834.5  42303
   11845.4  486043  91923.5  42345
   11846  486482  91958.5  42377
   11846.6  485701  91764.5  42282
   11846.9  485328  91711.5  42263
   11847.5  486343  91860.5  42326
   11848.1  486425  91828.5  42312
   11848.4  485587  91669.5  42240
   11849  485485  91607.5  42212
   11849.6  485546  91546.5  42180
   11849.9  485452  91526.5  42163
   11850.6  484299  91251.5  42043
   11850.9  484065  91161.5  41995
   11851.5  483974  91106.5  41961
   11852.1  484401  91104.5  41952
   11852.4  483599  90930.5  41858
   11853  484356  90996.5  41892
   11853.6  484415  90928.5  41832
   11853.9  484757  90941.5  41838
   11854.5  484595  90801.5  41757
   11855.1  484366  90653.5  41663
   11855.4  484037  90547.5  41603
   11856.1  484643  90525.5  41563
   11856.4  483143  90186.5  41397
   11857  483179  90045.5  41292
   11857.6  483236  89907.5  41168
   11857.9  483281  89831.5  41128
   11858.5  483006  89590.5  40951
   11859.1  482985  89370.5  40780
   11859.4  482731  89212.5  40669
   11860  482972  88987.5  40458
   11860.6  482362  88597.5  40150
   11861  481565  88335.5  39968
   11861.6  481681  87991.5  39634
   11861.9  482183  87905.5  39492
   11862.5  482378  87492.5  39022
   11863.1  480480  86651.5  38283
   11863.4  480918  86531.5  38033
   11864  481113  85911.5  37126
   11864.6  480030  84999.5  35839
   11864.9  479303  84469.5  35075
   11865.5  479178  83452.5  33171
   11865.9  479837  83150.5  32420
   11866.5  479808  81822.5  29972
   11867.1  479070  80086.5  27297
   11867.4  479435  79293.5  26158
   11868  480126  77168.5  23744
   11868.6  479847  74168.5  21510
   11868.9  479401  72831.5  20749
   11869.5  479157  68448.5  18794
   11870.1  479403  63086.5  17003
   11870.5  479434  60336.5  16189
   11871.1  478538  52900.5  14161
   11871.4  478285  50073.5  13410
   11872  478716  41296.5  11122
   11872.6  478139  32834.5  8919
   11872.9  477617  29224.5  7971.01
   11873.5  477399  21695.5  5981
   11874.1  477719  16184.5  4514
   11874.4  478058  14640.5  4100
   11875.1  478123  11886.5  3379
   11875.4  477294  11345.5  3251
   11876  477961  11451.5  3354
   11876.6  478249  12801.5  3826
   11876.9  478335  13506.5  4065
   11877.5  476865  15810.5  4839
   11878.1  477053  18384.5  5693
   11878.4  477296  19645.5  6113
   11879  477368  22339.5  7015
   11879.4  476209  23228.5  7311
   11880  476630  25738.5  8157.01
   11880.6  476216  27831.5  8866
   11880.9  476729  28673.5  9151
   11881.5  475026  30090.5  9643
   11882.1  475736  31274.5  10049
   11882.4  475861  31607.5  10161
   11883  475910  32274.5  10386
   11883.7  474950  32573.5  10480
   11884  475040  32680.5  10514
   11884.6  474939  32827.5  10554
   11884.9  474577  32840.5  10555
   11885.5  473967  32890.5  10571
   11886.1  473327  32923.5  10594
   11886.4  473571  32969.5  10618
   11887  473857  33093.5  10662
   11887.6  473316  33181.5  10700
   11888  473837  33260.5  10731
   11888.6  473835  33438.5  10792
   11888.9  474064  33545.5  10826
   11889.5  473725  33763.5  10895
   11890.1  473437  34052.5  10984
   11890.4  474081  34226.5  11039
   11891  473930  34619.5  11155
   11891.6  473316  34986.5  11268
   11892  472794  35149.5  11317
   11892.6  473459  35638.5  11480
   11892.9  472802  35752.5  11518
   11893.5  473061  36198.5  11677
   11894.1  472677  36556.5  11825
   11894.4  472378  36710.5  11880
   11895  472331  37069.5  12040
   11895.6  472555  37404.2  12194.8
   11896.3  472342  37673.5  12323
   11896.9  472034  37901.3  12438.8
   11897.5  472441  38138.6  12542.1
   11898.4  472196  38432.4  12647
   11899  472583  38684.6  12723.3
   11899.7  471990  38926.4  12791.2
   11900.6  472045  39506.8  12956.6
   11901.2  472910  40032.6  13114.5
   11902.1  472634  40729.9  13326
   11903  472759  41523.7  13591.9
   11903.7  473727  42102  13794.4
   11904.6  474026  42814.9  14037.4
   11905.5  474139  43505.3  14284.9
   11906.4  474063  44105.1  14500.9
   11907.4  475175  44827.5  14760.5
   11908.3  475697  45399.4  14964.5
   11909.2  475952  45935.8  15145.1
   11910.1  475902  46335.7  15282.3
   11911.1  476721  46706  15398.9
   11912.3  477671  46944  15465
   11913.2  478497  46958.4  15448.7
   11914.2  478910  46798.3  15377.9
   11915.4  479838  46442.8  15257.6
   11916.3  480747  46133.7  15165.8
   11917.6  481154  45515.1  15008.6
   11918.8  481522  44825.1  14845.8
   11919.7  482512  44335.6  14741.6
   11921  483873  43677.5  14587.9
   11922.2  485213  43117  14439.7
   11923.4  485913  42605  14288.1
   11924.7  486548  42192.5  14179.9
   11925.9  488093  41944.5  14111.3
   11927.1  489217  41702  14030.2
   11928.4  490656  41494  13962.7
   11929.6  491960  41239.5  13867.6
   11930.9  492881  40946.6  13752.1
   11932.4  495168  40623.1  13603
   11933.7  495977  40291.2  13460.5
   11934.9  497523  40056.7  13335.5
   11936.4  498997  39795.8  13205.1
   11938  499813  39615.3  13116.1
   11939.2  501110  39571.4  13096.7
   11940.8  501939  39487  13080.8
   11942.3  502737  39453.1  13095.4
   11943.6  504339  39544.7  13154.5
   11945.1  507502  39774.8  13260.2
   11946.7  510068  39964.4  13339.4
   11948.2  512107  40133.5  13420.1
   11949.8  513984  40317.2  13507.3
   11951.3  515484  40516.3  13597
   11952.9  517743  40807  13712.3
   11954.8  518260  41024.1  13820
   11956.3  519749  41313.8  13957.3
   11957.9  522621  41723  14132.1
   11959.7  525003  42124.7  14281.4
   11961.3  527017  42445.9  14393.3
   11963.2  529045  42788.5  14492.7
   11964.7  530439  43025.7  14574.5
   11966.6  532882  43339.5  14687
   11968.5  534468  43602.7  14821.9
   11970  536951  43955.4  15000.3
   11971.9  539667  44413.6  15251.3
   11973.8  541735  44902.4  15514.8
   11975.6  543003  45386.6  15757.8
   11977.5  545246  45967.4  16003.3
   11979.4  547358  46561.7  16238.3
   11981.3  550098  47157.4  16459.9
   11983.1  551104  47549.7  16602
   11985  553613  48010.5  16756.6
   11987.2  554420  48302.8  16832.7
   11989.1  558354  48761.6  16948.3
   11991.3  562177  49242.9  17057.5
   11993.2  565114  49607.7  17122.2
   11995.3  566739  49880.1  17145.4
   11997.2  568571  50139.9  17192.1
   11999.4  571081  50444.3  17271.3
   12001.3  573331  50682.1  17356.1
   12003.5  576181  50963.4  17481.4
   12005.7  579857  51291.3  17636.1
   12007.9  580839  51370.7  17712.5
   12010.1  583519  51587.5  17829.3
   12012.3  585342  51701  17913.6
   12014.5  588438  51886.8  18043.5
   12016.7  592790  52192.2  18195.9
   12018.9  595762  52391.2  18320.8
   12021.1  598470  52578.6  18429.2
   12023.6  602203  52825.5  18598.2
   12025.8  604306  52892  18672.7
   12028  607160  52978.9  18748.7
   12030.5  610676  53063.3  18833.2
   12032.7  613240  53075.3  18868.2
   12035.3  616639  53177.8  18958.7
   12037.8  620593  53351.8  19066.8
   12040  622527  53417.3  19134.4
   12042.5  626323  53746.2  19286.5
   12045  629439  54111.7  19456.1
   12047.6  631535  54447.7  19625.3
   12050.1  636068  55032.3  19875.9
   12052.6  637883  55349.2  20001.1
   12055.2  639752  55632.8  20090.8
   12057.7  641983  55908.8  20163
   12060.2  647703  56504.4  20372.8
   12062.8  651435  56937.4  20543
   12065.3  655880  57402  20743.8
   12068.1  658750  57745.1  20912.1
   12070.7  661557  58093.6  21068.9
   12073.2  665800  58586.7  21234.3
   12076.1  669104  59037.3  21366.1
   12078.6  673146  59520.4  21518.5
   12081.5  675056  59809  21604.4
   12084.3  678975  60264.1  21757.8
   12086.9  682361  60656.8  21897.7
   12089.7  686954  61195.9  22111.2
   12092.6  690407  61633.5  22317.2
   12095.5  694112  62111.7  22575.7
   12098.3  696629  62488.3  22793.7
   12101.2  700566  62998.5  23064.2
   12104.1  705407  63589.1  23360.2
   12107  709036  64065.3  23597.8
   12109.8  711485  64444  23814.9
   12112.7  714993  64894.2  24062.5
   12115.9  719085  65425.9  24372.6
   12118.8  723822  65958.1  24647.3
   12121.6  727281  66404.8  24904.5
   12124.9  731010  66920.1  25187.2
   12127.7  734356  67386.7  25427.3
   12130.9  739109  67992  25715.1
   12133.8  742839  68505.8  25944.3
   12137  745176  68837  26097.1
   12140.2  751802  69565.8  26364.4
   12143.4  755089  69986  26523.2
   12146.3  758471  70383.8  26674.5
   12149.6  762449  70802.1  26830.4
   12152.8  765476  71084.9  26954.7
   12156  770127  71473.2  27124.6
   12159.2  774039  71817  27266
   12162.4  778344  72211.3  27443.9
   12165.6  782169  72592.2  27628.4
   12169.2  786272  73002.5  27829.3
   12172.4  789282  73350.3  28022.8
   12175.6  793772  73912.7  28305.8
   12178.9  798356  74544.5  28591.3
   12182.4  801426  75060.9  28833.3
   12185.7  806856  75727.8  29129.9
   12189.2  809243  76048.1  29303
   12192.5  814608  76617  29593.6
   12196  819200  77097.4  29856.7
   12199.6  820739  77339.3  30034.3
   12202.8  825967  77962.7  30332.5
   12206.4  828742  78447.6  30599.1
   12210  833798  79218  30976.3
   12213.5  837627  79838  31316.1
   12217.1  840508  80283.4  31612.3
   12220.7  846071  80877.4  31938
   12224.3  850715  81341.9  32233.3
   12227.8  855790  81879.8  32542.1
   12231.4  858790  82342.2  32813.4
   12235  864030  83054.2  33182.2
   12238.9  868448  83700.7  33526.6
   12242.5  871377  84140.8  33771.5
   12246.1  876396  84839.2  34102.8
   12250  880430  85446.3  34376.7
   12253.6  884467  85954.7  34604.1
   12257.5  888842  86495.7  34833.1
   12261.2  892476  86986.4  35059.6
   12265.1  897552  87689.3  35384.5
   12269  899429  88096.9  35609
   12272.6  905276  88836.9  35969.1
   12276.6  910591  89537.5  36308.6
   12280.5  914664  90184.6  36631.7
   12284.4  917754  90752.2  36917.3
   12288.4  923219  91585.2  37353.3
   12292.3  927180  92201.9  37699
   12296.3  931047  92811  38045.1
   12300.2  935349  93443.6  38406.8
   12304.2  940566  94167.6  38817.9
   12308.2  942336  94500.3  39052.6
   12312.1  946285  95008.4  39348.8
   12316.1  952140  95686.1  39729.6
   12320.4  957931  96390.3  40133.9
   12324.3  959837  96760.9  40392.6
   12328.7  965381  97521  40830.9
   12332.6  970453  98194.7  41219.7
   12336.6  973381  98669.9  41526.1
   12340.9  978690  99446.6  41968.9
   12345.2  983446  100121  42372.3
   12349.2  987807  100725  42716.2
   12353.5  992205  101367  43091.6
   12357.9  994909  101878  43375.5
   12362.2  998326  102456  43731
   12366.2  1.00448e+06  103270  44174
   12370.5  1.00814e+06  103837  44525.4
   12374.9  1.01317e+06  104604  44965.4
   12379.2  1.01794e+06  105372  45384
   12383.5  1.02117e+06  105894  45674
   12387.9  1.02595e+06  106527  46031.6
   12392.6  1.02696e+06  106844  46261.7
   12396.9  1.03392e+06  107723  46725.3
   12401.3  1.03791e+06  108352  47098.4
   12405.6  1.04317e+06  109097  47504.1
   12410.3  1.0459e+06  109638  47855.2
   12414.7  1.05095e+06  110429  48289.9
   12419  1.0557e+06  111248  48761.1
   12423.8  1.05997e+06  112060  49228.8
   12428.1  1.06336e+06  112735  49656
   12432.8  1.06613e+06  113293  50037.8
   12437.6  1.07038e+06  113951  50459.1
   12441.9  1.07483e+06  114604  50898.9
   12446.7  1.07752e+06  115090  51246.2
   12451.4  1.08104e+06  115641  51658.1
   12456.1  1.08798e+06  116570  52217.4
   12460.5  1.08985e+06  117011  52546.3
   12465.3  1.09314e+06  117606  52956.7
   12470  1.09893e+06  118547  53529.6
   12474.7  1.10327e+06  119349  54035
   12479.5  1.10777e+06  120141  54526
   12484.2  1.11018e+06  120698  54918.5
   12489  1.11451e+06  121497  55405.5
   12494.1  1.1183e+06  122262  55872
   12498.9  1.12119e+06  122911  56290
   12503.6  1.12633e+06  123719  56784.6
   12508.4  1.13087e+06  124516  57295.6
   12513.5  1.13189e+06  124939  57627.2
   12518.3  1.13753e+06  125819  58163.3
   12523.4  1.14256e+06  126624  58680.9
   12528.2  1.14467e+06  127078  59029.1
   12533.4  1.14684e+06  127583  59401.8
   12538.1  1.15437e+06  128698  60065
   12543.3  1.15875e+06  129492  60608.7
   12548.1  1.16267e+06  130180  61053.9
   12553.2  1.16881e+06  131184  61675.7
   12558.4  1.17051e+06  131687  62063.9
   12563.6  1.17535e+06  132569  62645.7
   12568.7  1.18006e+06  133431  63217
   12573.5  1.18601e+06  134391  63818.8
   12578.7  1.18886e+06  135008  64277.2
   12583.9  1.19135e+06  135617  64760
   12589.1  1.19516e+06  136362  65287.4
   12594.2  1.20233e+06  137452  65971.3
   12599.4  1.20563e+06  138079  66449.7
   12605  1.21035e+06  138902  67055.7
   12610.2  1.21489e+06  139694  67644.1
   12615.4  1.21787e+06  140339  68158.1
   12620.6  1.2237e+06  141335  68829.6
   12625.8  1.22802e+06  142213  69437.6
   12631.3  1.23012e+06  142869  69959.2
   12636.6  1.23345e+06  143668  70535.2
   12642.1  1.23342e+06  144114  70941.8
   12647.4  1.23767e+06  144939  71515.9
   12652.9  1.23689e+06  145162  71819.5
   12658.2  1.24093e+06  145920  72377.6
   12663.8  1.24332e+06  146512  72842.3
   12669  1.24715e+06  147256  73403.5
   12674.6  1.2487e+06  147783  73844.2
   12680.2  1.25316e+06  148681  74497.4
   12685.8  1.25476e+06  149207  74966.1
   12691.1  1.26158e+06  150383  75738.4
   12696.7  1.26253e+06  150871  76201.1
   12702.3  1.26394e+06  151413  76677.4
   12708  1.2679e+06  152262  77310.2
   12713.6  1.27256e+06  153201  78006.5
   12719.3  1.27802e+06  154305  78781.4
   12724.9  1.28121e+06  155054  79365.7
   12730.6  1.2872e+06  156222  80204.6
   12736.2  1.28956e+06  156920  80784.1
   12741.9  1.2931e+06  157747  81441
   12747.9  1.29476e+06  158385  81992.4
   12753.6  1.29776e+06  159155  82619.4
   12759.2  1.30196e+06  160065  83327.9
   12764.9  1.30414e+06  160685  83874.9
   12771  1.30993e+06  161778  84681.3
   12776.7  1.31421e+06  162639  85369.5
   12782.4  1.31509e+06  163131  85888
   12788.4  1.31753e+06  163881  86508
   12794.1  1.32346e+06  165011  87352.7
   12800.2  1.3232e+06  165371  87768.8
   12806.3  1.32726e+06  166265  88494.4
   12812  1.32978e+06  167015  89154.6
   12818.1  1.32936e+06  167406  89594.3
   12824.2  1.32937e+06  167843  90102.5
   12829.9  1.33619e+06  169081  91002.1
   12836  1.33837e+06  169784  91601.4
   12842.1  1.33946e+06  170301  92153.2
   12848.2  1.34593e+06  171511  93057.5
   12854.4  1.34692e+06  172049  93602.2
   12860.5  1.35039e+06  172913  94325.6
   12866.3  1.35271e+06  173631  94985.4
   12872.4  1.35562e+06  174492  95720.7
   12878.6  1.35956e+06  175468  96543.7
   12885.1  1.35961e+06  175974  97107