File: data/as2o5_10K_scan2.xdi
# XDI/1.0
# Column.1: energy eV
# Column.2: i0
# Column.3: itrans
# Column.4: irefer
# Beamline.name: SSRL 2-3
# Beamline.notes: vert slits = 0.6mm
# Detector.I0: N2 15cm
# Detector.I1: Ar 30cm
# Detector.I2: Ar 15cm
# Element.edge: K
# Element.symbol: As
# Mono.d_spacing: 3.13550
# Mono.name: Si(111)
# Mono.notes: unfocused, detuned 75%, clockwise at E=12000eV
# Sample.formula: As2O5
# Sample.name: As2O5 arsenic (V) oxide
# Sample.prep: powder on tape (5 layers)
# Sample.reference: GaAs powder
# Sample.temperature: 10K
# Scan.start_time: 1997-04-19 18:40:39
# ///
#    Note: mono d_spacing is nominal!
#     exafs to K16, GaAs in IR
#     413  E XMU XMUR I0
#-------------
#   energy   i0   itrans  irefer
   11634.9  546103  96985.5  39787
   11644.9  543570  96898.5  39985
   11654.9  541284  96855.5  40193
   11665  538197  96653.5  40354
   11675.1  535365  96505.5  40538
   11684.9  531859  96203.5  40651
   11695  528338  95924.5  40761
   11705.1  525931  95837.5  40951
   11714.9  524405  95896.5  41238
   11725.1  521703  95756.5  41392
   11735  518512  95499.5  41520
   11744.9  515822  95339.5  41689
   11755.1  512779  95125.5  41840
   11765  510711  95058.5  42045
   11775  508291  94917.5  42225
   11784.9  505201  94661.5  42344
   11794.9  502459  94442.5  42478
   11804.9  500003  94239.5  42624
   11814.9  497106  93952.5  42710
   11824.9  494662  93658.5  42796
   11835  492100  93255.5  42801
   11845.1  489219  92504.5  42589
   11845.4  488982  92443.5  42555
   11846  489338  92478.5  42568
   11846.6  489343  92453.5  42574
   11846.9  488513  92288.5  42498
   11847.5  488393  92236.5  42467
   11848.1  488713  92247.5  42463
   11848.4  488356  92154.5  42433
   11849  487757  91994.5  42358
   11849.6  487569  91914.5  42321
   11849.9  487496  91886.5  42300
   11850.6  487062  91742.5  42234
   11850.9  486652  91651.5  42198
   11851.5  486572  91549.5  42135
   11852.1  486796  91539.5  42123
   11852.4  486720  91484.5  42083
   11853  486633  91393.5  42031
   11853.6  486377  91265.5  41963
   11853.9  486615  91253.5  41948
   11854.5  487410  91315.5  41947
   11855.1  486906  91114.5  41849
   11855.4  486186  90937.5  41751
   11856.1  487115  90972.5  41728
   11856.4  486936  90862.5  41657
   11857  486365  90628.5  41515
   11857.6  486000  90385.5  41357
   11857.9  485955  90321.5  41310
   11858.5  486082  90121.5  41152
   11859.1  485875  89855.5  40958
   11859.4  485573  89708.5  40843
   11860  485786  89468.5  40633
   11860.6  486027  89229.5  40399
   11861  485922  89093.5  40278
   11861.6  485245  88612.5  39862
   11861.9  485429  88459.5  39695
   11862.5  485212  87968.5  39193
   11863.1  484792  87400.5  38551
   11863.4  484114  87057.5  38206
   11864  484155  86384.5  37231
   11864.6  483568  85537.5  35935
   11864.9  483412  85108.5  35199
   11865.5  482650  83974.5  33215
   11865.9  482820  83572.5  32408
   11866.5  483362  82292.5  29897
   11867.1  483445  80628.5  27269
   11867.4  482754  79654.5  26058
   11868  482561  77278.5  23595
   11868.6  483347  74315.5  21402
   11868.9  483402  73023.5  20680
   11869.5  482780  68417.5  18710
   11870.1  482452  62809.5  16880
   11870.5  482453  59876.5  16035
   11871.1  482785  52321.5  13991
   11871.4  481512  49306.5  13203
   11872  480752  40326.5  10863
   11872.6  480889  31791.5  8633
   11872.9  480870  28196.5  7693
   11873.5  480340  20807.5  5742
   11874.1  479956  15473.5  4318
   11874.4  480300  14072.5  3944
   11875.1  480524  11682.5  3332
   11875.4  480348  11307.5  3245
   11876  479513  11605.5  3405
   11876.6  480540  13114.5  3924
   11876.9  480608  13890.5  4185
   11877.5  480352  16321.5  4997
   11878.1  479433  18901.5  5860
   11878.4  479585  20147.5  6272
   11879  479943  22851.5  7174
   11879.4  479434  23758.5  7476.99
   11880  478558  26186.5  8294
   11880.6  479013  28277.5  9006
   11880.9  478610  29060.5  9273
   11881.5  478394  30506.5  9770
   11882.1  477932  31570.5  10137
   11882.4  477810  31870.5  10237
   11883  477637  32464.5  10436
   11883.7  477652  32792.5  10542
   11884  476610  32823.5  10543
   11884.6  476522  32957.5  10589
   11884.9  476316  32980.5  10590
   11885.5  475896  33031.5  10610
   11886.1  475668  33099.5  10638
   11886.4  474899  33078.5  10640
   11887  475637  33234.5  10698
   11887.6  476049  33377.5  10755
   11888  475100  33379.5  10757
   11888.6  475171  33554.5  10820
   11888.9  475393  33666.5  10855
   11889.5  476223  33983.5  10955
   11890.1  475416  34206.5  11021
   11890.4  475367  34353.5  11063
   11891  475095  34741.5  11180
   11891.6  476069  35229.5  11329
   11892  474818  35344.5  11365
   11892.6  474743  35774.5  11505
   11892.9  475254  35971.5  11573
   11893.5  475184  36391.5  11729
   11894.1  474839  36752.5  11871
   11894.4  474106  36877.5  11927
   11895  474805  37292.5  12096
   11895.6  475321  37648.3  12262.8
   11896.3  475146  37924.5  12400
   11896.9  474357  38103.3  12500.8
   11897.5  474800  38345.6  12598.2
   11898.4  475209  38681.3  12718
   11899  475303  38925.7  12782.4
   11899.7  474667  39161.4  12849.2
   11900.6  474433  39733.8  13010.6
   11901.2  475732  40291.6  13184.5
   11902.1  475917  41039.9  13424
   11903  475549  41791.7  13669.9
   11903.7  476090  42337.1  13857.4
   11904.6  476962  43093.9  14118.4
   11905.5  477094  43793.3  14365.9
   11906.4  477246  44419.1  14593.9
   11907.4  477489  45062.5  14822.5
   11908.3  477878  45639.3  15026.5
   11909.2  479587  46333.8  15260.2
   11910.1  479328  46689.6  15387.2
   11911.1  480094  47042.1  15497.9
   11912.3  480926  47249  15547
   11913.2  481583  47256.4  15529.7
   11914.2  482270  47115.3  15468.9
   11915.4  482037  46638.8  15310.6
   11916.3  483081  46333.7  15222.8
   11917.6  484310  45808.1  15094.6
   11918.8  485617  45181.1  14946.8
   11919.7  485815  44620.5  14821.6
   11921  486753  43931.5  14662.9
   11922.2  487683  43332  14500.7
   11923.4  488678  42853  14364.1
   11924.7  489590  42466.5  14254.9
   11925.9  489272  42049.5  14129.3
   11927.1  490126  41780  14049.2
   11928.4  491341  41555  13971.6
   11929.6  492884  41330.5  13880.6
   11930.9  493935  41041.6  13774
   11932.4  495318  40649.1  13604
   11933.7  496835  40381.1  13475.5
   11934.9  498203  40116.7  13351.5
   11936.4  499720  39854.8  13214.1
   11938  500460  39673.4  13127.1
   11939.2  501866  39640.4  13108.7
   11940.8  502218  39519  13079.8
   11942.3  503438  39528.1  13115.4
   11943.6  504605  39584.7  13150.6
   11945.1  507845  39811.8  13258.2
   11946.7  510888  40036.4  13355.4
   11948.2  513319  40232.5  13444.1
   11949.8  515294  40422.2  13533.3
   11951.3  515874  40549.3  13592
   11952.9  518594  40881  13726.3
   11954.8  519920  41168.1  13864
   11956.3  522469  41537.8  14028.3
   11957.9  524634  41882  14172.1
   11959.7  526798  42277.6  14326.4
   11961.3  529063  42621.8  14443.3
   11963.2  530196  42887.6  14525.7
   11964.7  532949  43225.7  14635.5
   11966.6  534918  43515.5  14746.9
   11968.5  536309  43759.7  14862.9
   11970  539455  44165.4  15064.3
   11971.9  542164  44622.7  15318.3
   11973.8  543993  45092.4  15576.8
   11975.6  546365  45673.6  15850.8
   11977.5  548777  46265.4  16094.3
   11979.4  551410  46899.6  16342.3
   11981.3  553575  47459.4  16554.9
   11983.1  555962  47981.7  16741
   11985  557423  48349.5  16866.6
   11987.2  558020  48610.8  16927.7
   11989.1  562345  49116.6  17061.3
   11991.3  566153  49577.9  17156.5
   11993.2  568896  49934.7  17228.2
   11995.3  571175  50271.1  17268.4
   11997.2  573150  50549.9  17323.1
   11999.4  575617  50841.2  17399.3
   12001.3  577828  51088.1  17480.1
   12003.5  580953  51379.4  17613.3
   12005.7  583372  51607.3  17738.1
   12007.9  586288  51844.7  17867.5
   12010.1  587897  51971.6  17955.3
   12012.3  589996  52116  18051.7
   12014.5  593380  52325.8  18175.5
   12016.7  598227  52676.3  18359.9
   12018.9  600942  52851.1  18461.8
   12021.1  603866  53051.6  18595.2
   12023.6  607059  53250.5  18730.2
   12025.8  609641  53366  18825.7
   12028  612705  53462.9  18904.7
   12030.5  615733  53505.3  18974.1
   12032.7  618289  53513.3  19026.2
   12035.3  621992  53623.8  19107.7
   12037.8  624706  53703.7  19178.8
   12040  628097  53903.2  19288.4
   12042.5  631164  54159.2  19429.5
   12045  634923  54575.7  19620.1
   12047.6  637605  54968.7  19798.3
   12050.1  639580  55336.2  19975.9
   12052.6  642925  55793.3  20154.1
   12055.2  645065  56102.8  20243.8
   12057.7  646689  56318.8  20296
   12060.2  653529  57015.4  20537.8
   12062.8  656242  57368.4  20691
   12065.3  661154  57879  20903.8
   12068.1  663833  58202.1  21071.1
   12070.7  667027  58569.6  21214.9
   12073.2  671037  59071.7  21390.2
   12076.1  674806  59538.3  21534.1
   12078.6  677711  59920.4  21650.5
   12081.5  679592  60216  21733.4
   12084.3  684211  60728.1  21902.8
   12086.9  687718  61149.8  22055.7
   12089.7  692322  61672.9  22269.2
   12092.6  694194  61992.5  22434.1
   12095.5  699436  62606.7  22743.7
   12098.3  701824  62961.3  22952.7
   12101.2  704597  63365.5  23182.2
   12104.1  708511  63875.1  23452.2
   12107  712364  64380.3  23706.8
   12109.8  714351  64709  23894.9
   12112.7  718130  65211.2  24163.5
   12115.9  723274  65808.9  24490.7
   12118.8  725840  66144.1  24706.3
   12121.6  730289  66686.8  24991.5
   12124.9  733339  67124.1  25249.2
   12127.7  737771  67689.8  25535.4
   12130.9  741911  68261  25815.1
   12133.8  745525  68738.8  26034.3
   12137  747904  69107  26186.1
   12140.2  753435  69737.8  26427.4
   12143.4  757069  70177  26574.2
   12146.3  760255  70553.8  26709.5
   12149.6  763556  70899.1  26847.4
   12152.8  766755  71223.9  26979.7
   12156  771400  71612.2  27141.6
   12159.2  774881  71897  27265
   12162.4  779204  72321.3  27463.9
   12165.6  782216  72615.2  27620.4
   12169.2  785796  72961.5  27812.3
   12172.4  791040  73515.3  28075.8
   12175.6  794652  74020.7  28331.8
   12178.9  800305  74733.5  28642.3
   12182.4  803165  75237.9  28888.3
   12185.7  807587  75794.8  29134.9
   12189.2  810213  76130.1  29315
   12192.5  814222  76588  29555.6
   12196  818611  77070.4  29826.7
   12199.6  821310  77380.3  30022.3
   12202.8  825876  77950.7  30315.5
   12206.4  829223  78507.7  30601.2
   12210  833432  79182.1  30941.3
   12213.5  837696  79840  31296
   12217.1  840789  80301.4  31592.3
   12220.7  845863  80861.4  31909
   12224.3  850236  81307.9  32206.3
   12227.8  853724  81704.8  32458.1
   12231.4  858670  82350.2  32796.4
   12235  862351  82909.2  33100.2
   12238.9  866699  83519.7  33424.6
   12242.5  871205  84126.8  33748.5
   12246.1  875406  84746.2  34044.8
   12250  879242  85319.2  34313.7
   12253.6  883009  85818.8  34541.2
   12257.5  887286  86375.8  34778.1
   12261.2  891572  86915.3  35015.6
   12265.1  895838  87525.4  35305.6
   12269  893997  87652.9  35418
   12272.6  903249  88622  35867.1
   12276.6  908662  89337.5  36205.6
   12280.5  912245  89923.6  36493.7
   12284.4  913528  90336.2  36743.3
   12288.4  920521  91298.2  37214.3
   12292.3  925707  92047.8  37612
   12296.3  926783  92368.9  37838.1
   12300.2  932918  93195.6  38273.8
   12304.2  937441  93838.7  38648
   12308.2  940297  94292.3  38930.7
   12312.1  944822  94835.4  39255.9
   12316.1  949350  95384  39578.6
   12320.4  953499  95931.3  39926.9
   12324.3  958224  96592.9  40295.6
   12328.7  963348  97304.1  40708.9
   12332.6  968081  97963.7  41099.7
   12336.6  974033  98738  41536.1
   12340.9  977298  99288.6  41886.9
   12345.2  981976  99951.8  42259.3
   12349.2  985854  100516  42595.2
   12353.5  989141  101070  42924.6
   12357.9  992497  101617  43259.5
   12362.2  997848  102389  43677
   12366.2  1.00126e+06  102911  43993.9
   12370.5  1.00551e+06  103561  44383.5
   12374.9  1.0112e+06  104393  44850.4
   12379.2  1.01395e+06  104943  45183
   12383.5  1.01897e+06  105647  45560
   12387.9  1.02125e+06  106057  45818.6
   12392.6  1.02462e+06  106569  46127.7
   12396.9  1.03089e+06  107417  46577.3
   12401.3  1.03493e+06  108009  46919.4
   12405.6  1.0396e+06  108710  47316
   12410.3  1.04301e+06  109315  47678.2
   12414.7  1.04818e+06  110122  48140.9
   12419  1.05144e+06  110781  48534.1
   12423.8  1.05573e+06  111606  49032.8
   12428.1  1.06145e+06  112540  49564.1
   12432.8  1.06653e+06  113315  50029.8
   12437.6  1.06861e+06  113760  50358.1
   12441.9  1.07526e+06  114665  50894.9
   12446.7  1.0769e+06  115051  51228.2
   12451.4  1.08184e+06  115730  51669
   12456.1  1.08661e+06  116419  52127.4
   12460.5  1.09107e+06  117110  52558.3
   12465.3  1.09349e+06  117648  52955.7
   12470  1.09865e+06  118520  53492.6
   12474.7  1.1024e+06  119240  53972.1
   12479.5  1.10636e+06  119984  54438
   12484.2  1.11103e+06  120764  54920.4
   12489  1.11657e+06  121700  55483.5
   12494.1  1.12001e+06  122443  55945.9
   12498.9  1.12483e+06  123308  56465
   12503.6  1.12567e+06  123660  56767.5
   12508.4  1.13056e+06  124454  57264.6
   12513.5  1.13221e+06  124941  57628.2
   12518.3  1.13863e+06  125935  58223.3
   12523.4  1.14326e+06  126674  58693
   12528.2  1.14807e+06  127433  59200.1
   12533.4  1.15055e+06  127980  59595.7
   12538.1  1.15576e+06  128845  60135
   12543.3  1.16023e+06  129637  60653.7
   12548.1  1.16363e+06  130274  61089.9
   12553.2  1.16832e+06  131107  61635.6
   12558.4  1.17143e+06  131768  62088.9
   12563.6  1.17424e+06  132422  62558.7
   12568.7  1.17886e+06  133288  63134
   12573.5  1.18364e+06  134093  63678.8
   12578.7  1.1875e+06  134825  64199.1
   12583.9  1.19022e+06  135464  64668
   12589.1  1.19685e+06  136515  65333.4
   12594.2  1.19964e+06  137138  65820.3
   12599.4  1.20219e+06  137676  66266.7
   12605  1.20507e+06  138302  66769.7
   12610.2  1.21007e+06  139144  67356.1
   12615.4  1.21373e+06  139866  67880.1
   12620.6  1.21964e+06  140868  68567.6
   12625.8  1.22343e+06  141640  69122.6
   12631.3  1.22523e+06  142286  69621.1
   12636.6  1.22958e+06  143210  70252.2
   12642.1  1.23398e+06  144156  70912.8
   12647.4  1.23552e+06  144665  71346.9
   12652.9  1.23996e+06  145518  71964.5
   12658.2  1.2424e+06  146075  72409.6
   12663.8  1.24724e+06  146955  73025.2
   12669  1.24785e+06  147330  73393.5
   12674.6  1.25293e+06  148249  74058.2
   12680.2  1.25653e+06  149054  74649.3
   12685.8  1.26013e+06  149830  75221.1
   12691.1  1.26362e+06  150572  75805.3
   12696.7  1.2676e+06  151464  76461.1
   12702.3  1.27092e+06  152196  77044.4
   12708  1.27468e+06  153048  77673.2
   12713.6  1.27736e+06  153755  78255.5
   12719.3  1.28148e+06  154657  78939.4
   12724.9  1.28135e+06  155052  79356.7
   12730.6  1.28633e+06  156096  80103.6
   12736.2  1.28771e+06  156670  80629.1
   12741.9  1.28939e+06  157257  81161.9
   12747.9  1.29237e+06  158078  81820.4
   12753.6  1.29856e+06  159206  82610.4
   12759.2  1.30247e+06  160076  83316.8
   12764.9  1.30506e+06  160768  83896.9
   12771  1.30867e+06  161557  84559.4
   12776.7  1.31422e+06  162602  85331.5
   12782.4  1.31469e+06  163052  85825
   12788.4  1.31941e+06  164084  86583
   12794.1  1.32225e+06  164828  87219.7
   12800.2  1.32262e+06  165257  87688.8
   12806.3  1.3237e+06  165797  88218.4
   12812  1.32678e+06  166593  88893.6
   12818.1  1.33078e+06  167549  89645.3
   12824.2  1.3333e+06  168273  90275.5
   12829.9  1.33513e+06  168938  90862.2
   12836  1.34026e+06  169943  91678.5
   12842.1  1.34227e+06  170642  92305.2
   12848.2  1.34476e+06  171335  92932.4
   12854.4  1.34486e+06  171753  93419.3
   12860.5  1.34946e+06  172735  94227.6
   12866.3  1.35218e+06  173525  94911.4
   12872.4  1.35375e+06  174192  95537.7
   12878.6  1.35602e+06  174950  96213.6
   12885.1  1.35726e+06  175623  96893