File: data/as2o3_100K_scan3.xdi
# XDI/1.0
# Column.1: energy eV
# Column.2: i0
# Column.3: itrans
# Column.4: irefer
# Beamline.name: SSRL 2-3
# Beamline.notes: vert slits = 0.6mm
# Detector.I0: N2 15cm
# Detector.I1: Ar 30cm
# Detector.I2: Ar 15cm
# Element.edge: K
# Element.symbol: As
# Mono.d_spacing: 3.13550
# Mono.name: Si(111)
# Mono.notes: unfocused, detuned 75%, clockwise at E=12000eV
# Sample.formula: As2O3
# Sample.name: As2O3 arsenious oxide
# Sample.prep: powder on tape (2 layers)
# Sample.reference: GaAs powder
# Sample.temperature: 100K
# Scan.start_time: 1997-04-19 23:43:03
# ///
#    Note: mono d_spacing is nominal!
#     exafs to K16, GaAs in IR
#     413  E XMU XMUR I0
#-------------
#   energy   i0   itrans  irefer
   11634.9  511079  94035.5  38347
   11644.9  508718  93945.5  38538
   11654.9  505696  93732.5  38691
   11665  503504  93663.5  38872
   11675.1  501190  93586.5  39079
   11684.9  498780  93428.5  39241
   11695  495890  93229.5  39388
   11705.1  493232  93090.5  39561
   11714.9  490977  92979.5  39747
   11725.1  488754  92887.5  39928
   11735  486190  92716.5  40087
   11744.9  483784  92586.5  40257
   11755.1  481241  92408.5  40416
   11765  478940  92278.5  40602
   11775  476613  92129.5  40748
   11784.9  474270  91971.5  40914
   11794.9  471781  91764.5  41051
   11804.9  469201  91507.5  41170
   11814.9  466684  91247.5  41254
   11824.9  464498  90983.5  41358
   11835  462054  90517.5  41317
   11845.1  459633  89695.5  41055
   11845.4  459052  89562.5  40989
   11846  458917  89478.5  40962
   11846.6  459022  89458.5  40950
   11846.9  458778  89395.5  40923
   11847.5  458501  89290.5  40868
   11848.1  458275  89160.5  40802
   11848.4  458111  89107.5  40785
   11849  457784  88985.5  40721
   11849.6  457116  88781.5  40623
   11849.9  457236  88756.5  40601
   11850.6  457493  88739.5  40598
   11850.9  457679  88697.5  40573
   11851.5  457187  88514.5  40475
   11852.1  457377  88430.5  40424
   11852.4  457786  88455.5  40435
   11853  457730  88304.5  40346
   11853.6  457413  88110.5  40247
   11853.9  457352  88010.5  40189
   11854.5  457643  87872.5  40091
   11855.1  457466  87641.5  39952
   11855.4  457209  87476.5  39859
   11856.1  457199  87240.5  39720
   11856.4  456936  87058.5  39616
   11857  457026  86749.5  39427
   11857.6  456520  86297.5  39148
   11857.9  456676  86194.5  39071
   11858.5  456807  85775.5  38802
   11859.1  456457  85207.5  38452
   11859.4  456153  84849.5  38230
   11860  456838  84299.5  37829
   11860.6  456118  83409.5  37249
   11861  456030  83012.5  36988
   11861.6  455577  81890.5  36213
   11861.9  455622  81280.5  35766
   11862.5  455514  79800.5  34679
   11863.1  454968  77838.5  33205
   11863.4  454599  76819.5  32423
   11864  454226  74125.5  30356
   11864.6  454206  70660.5  27770
   11864.9  454080  68445.5  26209
   11865.5  454328  63180.5  22839
   11865.9  454373  60493.5  21299
   11866.5  454504  53198.5  17553
   11867.1  454555  44910.5  13927
   11867.4  454319  40552.5  12221
   11868  454093  32046.5  9182
   11868.6  454205  24801.5  6833
   11868.9  453943  22386.5  6095
   11869.5  453578  18432.5  4939
   11870.1  452988  17061.5  4560
   11870.5  453290  17250.5  4623
   11871.1  452874  18868.5  5107
   11871.4  452511  19842.5  5389
   11872  452306  22542.5  6188
   11872.6  452242  25249.5  7003
   11872.9  452082  26565.5  7415
   11873.5  451876  29127.5  8236
   11874.1  452082  31650.5  9088
   11874.4  452233  32760.5  9469
   11875.1  451917  35103.5  10324
   11875.4  451815  36238.5  10753
   11876  452000  38244.5  11534
   11876.6  452383  39625.5  12108
   11876.9  451666  39921.5  12265
   11877.5  451504  40142.5  12457
   11878.1  451916  39615.5  12387
   11878.4  451917  39089.5  12263
   11879  451426  37729.5  11891
   11879.4  451345  37084.5  11712
   11880  451432  35722.5  11327
   11880.6  451474  34752.5  11058
   11880.9  451348  34455.5  10974
   11881.5  450935  34284.5  10934
   11882.1  450986  34612.5  11038
   11882.4  451104  34859.5  11120
   11883  450395  35471.5  11302
   11883.7  449668  36102.5  11504
   11884  449723  36407.5  11611
   11884.6  449596  36929.5  11775
   11884.9  449294  37100.5  11836
   11885.5  449201  37495.5  11974
   11886.1  449230  37919.5  12119
   11886.4  449643  38172.5  12203
   11887  449990  38691.5  12377
   11887.6  449541  39165.5  12533
   11888  449856  39428.5  12617
   11888.6  449706  39931.5  12771
   11888.9  449533  40143.5  12841
   11889.5  449228  40602.5  12984
   11890.1  449605  41134.5  13140
   11890.4  449415  41365.5  13211
   11891  449353  41984.5  13405
   11891.6  449027  42645.5  13624
   11892  448987  43018.5  13741
   11892.6  448967  43691.5  13982
   11892.9  448694  43932.5  14070
   11893.5  448400  44403.5  14271
   11894.1  448486  44734.5  14411
   11894.4  448264  44824.5  14475
   11895  448040  44926.5  14556
   11895.6  447845  44981.2  14618.8
   11896.3  447850  45026.5  14666
   11896.9  448162  45088.3  14706.8
   11897.5  447511  45082.5  14718.1
   11898.4  447762  45179.4  14729
   11899  447977  45271.6  14741.4
   11899.7  448051  45350.4  14756.2
   11900.6  448079  45522.7  14786.6
   11901.2  447960  45653.5  14820.5
   11902.1  448383  45922.9  14904
   11903  448920  46190.7  15003.9
   11903.7  448478  46276.1  15044.4
   11904.6  448939  46479.9  15139.4
   11905.5  449409  46698.3  15221.9
   11906.4  450333  46914.1  15309.9
   11907.4  450264  46968.5  15342.5
   11908.3  450720  46940.4  15348.6
   11909.2  451379  46735.7  15285.1
   11910.1  452305  46440.6  15182.2
   11911.1  452525  45951.1  15006.9
   11912.3  453121  45289  14766
   11913.2  453978  44904.4  14629.7
   11914.2  455078  44603.3  14518.9
   11915.4  455498  44299.7  14434.6
   11916.3  455843  44221.7  14433.8
   11917.6  456510  44251.1  14504.6
   11918.8  457315  44311.1  14604.8
   11919.7  458517  44348.5  14661.6
   11921  459269  44158.5  14653.9
   11922.2  460219  43851  14578.7
   11923.4  461192  43488  14483.1
   11924.7  462532  43157.5  14381.9
   11925.9  463597  42894.5  14311.3
   11927.1  464359  42758  14262.2
   11928.4  465278  42765  14258.6
   11929.6  466765  42870.5  14273.6
   11930.9  468148  42903.6  14260
   11932.4  469593  42918.1  14222
   11933.7  470869  43029.1  14215.5
   11934.9  471875  43214.7  14238.5
   11936.4  473120  43478.7  14285.1
   11938  474515  43648.3  14327.1
   11939.2  475106  43627.4  14320.7
   11940.8  475349  43467  14289.8
   11942.3  476418  43321.1  14283.4
   11943.6  479262  43391.7  14316.5
   11945.1  481860  43496.8  14387.2
   11946.7  484217  43772.4  14493.4
   11948.2  485172  44134.6  14642.1
   11949.8  487297  44706.2  14856.3
   11951.3  489194  45261.3  15067
   11952.9  490813  45720  15211.3
   11954.8  492182  46017.1  15369
   11956.3  493331  46295.8  15486.3
   11957.9  495092  46650  15630.1
   11959.7  497434  47155.7  15809.5
   11961.3  499397  47591.8  15945.3
   11963.2  501207  47978.6  16061.7
   11964.7  503657  48302.8  16175.6
   11966.6  505599  48603.5  16290.9
   11968.5  506738  48872.7  16447.9
   11970  508801  49220.4  16647.3
   11971.9  511520  49601.6  16883.3
   11973.8  513671  49891.4  17075.8
   11975.6  515830  50207.6  17257.8
   11977.5  517076  50521.4  17397.3
   11979.4  519543  51020.6  17585.3
   11981.3  521787  51579.4  17799.9
   11983.1  523199  52073.7  17965
   11985  524683  52491.5  18105.6
   11987.2  526380  52823.8  18181.7
   11989.1  530234  53265.6  18283.3
   11991.3  533707  53684.9  18356.5
   11993.2  535740  53934.8  18374.2
   11995.3  537514  54114  18372.4
   11997.2  540151  54297.9  18392.1
   11999.4  543061  54372.2  18404.3
   12001.3  545642  54388.1  18415.1
   12003.5  548122  54334.5  18442.4
   12005.7  550871  54282.3  18463.1
   12007.9  552722  54135.7  18456.5
   12010.1  554410  54035.6  18472.3
   12012.3  556490  54110  18543.7
   12014.5  559751  54440.8  18730.5
   12016.7  564021  54953.3  18957.9
   12018.9  567058  55318.2  19126.8
   12021.1  568057  55476.6  19249.2
   12023.6  571784  55901.5  19470.2
   12025.8  574690  56216  19636.7
   12028  576535  56409.9  19745.7
   12030.5  580155  56703.3  19914.2
   12032.7  583725  57025.3  20061.2
   12035.3  586209  57369.7  20236.7
   12037.8  589410  57801.8  20438.8
   12040  591707  58166.3  20610.4
   12042.5  594607  58580.2  20808.5
   12045  597273  58963.7  20979.1
   12047.6  599733  59347.8  21168.3
   12050.1  602994  59827.3  21378.9
   12052.6  605822  60296.3  21548.1
   12055.2  607144  60589.8  21628.8
   12057.7  610750  61109.9  21785
   12060.2  616089  61777.4  22019.8
   12062.8  618751  62136.4  22183
   12065.3  621827  62464  22342.8
   12068.1  626167  62801.1  22510.1
   12070.7  629252  63024.6  22592.9
   12073.2  632208  63365.7  22701.3
   12076.1  633401  63774.3  22817.1
   12078.6  637789  64523.4  23066.5
   12081.5  640410  65157  23263.4
   12084.3  644788  65905.1  23525.8
   12086.9  648843  66514.8  23747.7
   12089.7  653242  67118.9  23999.2
   12092.6  654958  67347.5  24157.2
   12095.5  657262  67562.7  24310.6
   12098.3  661320  67888.3  24519.7
   12101.2  662154  67911.5  24611.2
   12104.1  667774  68534.2  24918.3
   12107  669192  68822.3  25098.8
   12109.8  674124  69534  25436.9
   12112.7  675342  69918.2  25673.5
   12115.9  682083  70891.9  26137.7
   12118.8  684761  71306.1  26384.3
   12121.6  689835  71875.8  26682.5
   12124.9  691992  72115.1  26878.2
   12127.7  695823  72530.8  27106.4
   12130.9  699748  73038  27355.1
   12133.8  704320  73642.7  27612.3
   12137  704960  73858  27709.1
   12140.2  711971  74630.7  27995.4
   12143.4  713886  74719.1  28005.2
   12146.3  719028  75096.8  28159.5
   12149.6  722566  75297.1  28237.4
   12152.8  726499  75531.9  28328.7
   12156  729094  75580.2  28370.6
   12159.2  733567  75947  28535
   12162.4  737672  76527.4  28789.9
   12165.6  739659  77038.1  29015.3
   12169.2  744312  77888.4  29409.3
   12172.4  749080  78683.3  29775.8
   12175.6  753205  79395.6  30098.8
   12178.9  757352  80123.5  30433.3
   12182.4  760388  80802.9  30721.3
   12185.7  764826  81622.8  31076.9
   12189.2  768194  82334.1  31405
   12192.5  772597  83028  31756.6
   12196  776443  83625.4  32061.7
   12199.6  779202  84065.3  32309.3
   12202.8  783931  84624.8  32605.5
   12206.4  787718  85076.6  32849.1
   12210  791178  85442.1  33077.3
   12213.5  795871  85947  33387.1
   12217.1  800458  86480.4  33693.3
   12220.7  804381  86957.4  34012
   12224.3  807662  87308.8  34261.3
   12227.8  812500  87819.8  34552.1
   12231.4  816511  88298.2  34828.4
   12235  820041  88827.2  35125.2
   12238.9  823818  89493.7  35475.6
   12242.5  828035  90282.7  35868.4
   12246.1  831588  91042.2  36226.8
   12250  835806  91909.2  36607.7
   12253.6  840530  92779.7  36959.1
   12257.5  844539  93603.8  37307.1
   12261.2  848253  94377.3  37652.6
   12265.1  850798  94949.4  37931.6
   12269  854764  95569.9  38235
   12272.6  860482  96269  38579.1
   12276.6  865749  96865.5  38876.6
   12280.5  868239  97203.6  39081.7
   12284.4  872514  97751.1  39383.2
   12288.4  877419  98326.3  39686.4
   12292.3  881454  98744.9  39965
   12296.3  885115  99175  40251.1
   12300.2  889164  99672.5  40553.8
   12304.2  892618  100131  40841
   12308.2  897193  100747  41204.7
   12312.1  901104  101326  41548.9
   12316.1  905455  101984  41914.6
   12320.4  908373  102563  42270.9
   12324.3  913613  103431  42731.6
   12328.7  916658  104107  43134.9
   12332.6  921484  104995  43635.7
   12336.6  926369  105817  44096.1
   12340.9  929834  106431  44473.9
   12345.2  933557  107049  44856.3
   12349.2  937331  107669  45202.2
   12353.5  942530  108546  45652.6
   12357.9  946052  109277  46066.5
   12362.2  949000  109939  46463
   12366.2  954475  110832  46932
   12370.5  958021  111498  47329.4
   12374.9  963390  112336  47790.4
   12379.2  965696  112776  48086
   12383.5  970989  113522  48485
   12387.9  974535  114110  48810.6
   12392.6  976547  114498  49067.7
   12396.9  983636  115551  49610.3
   12401.3  987440  116190  49975.4
   12405.6  992094  116943  50413
   12410.3  995853  117555  50776.2
   12414.7  999114  118117  51132.9
   12419  1.00351e+06  118858  51567.1
   12423.8  1.00793e+06  119666  52057.8
   12428.1  1.01136e+06  120385  52505.1
   12432.8  1.01507e+06  121188  52998.8
   12437.6  1.01922e+06  122052  53522.1
   12441.9  1.02349e+06  122907  54056.9
   12446.7  1.02897e+06  123911  54650.2
   12451.4  1.03274e+06  124657  55140
   12456.1  1.03523e+06  125210  55536.4
   12460.5  1.03935e+06  125954  56004.3
   12465.3  1.04012e+06  126290  56318.7
   12470  1.04916e+06  127616  57056.6
   12474.7  1.05114e+06  128053  57413
   12479.5  1.05656e+06  128920  57946
   12484.2  1.0586e+06  129335  58283.4
   12489  1.06281e+06  130020  58718.4
   12494.1  1.06631e+06  130607  59128
   12498.9  1.07004e+06  131236  59562
   12503.6  1.07547e+06  132099  60072.5
   12508.4  1.07791e+06  132601  60440.6
   12513.5  1.08111e+06  133237  60879.2
   12518.3  1.08617e+06  134133  61422.3
   12523.4  1.0899e+06  134910  61930.9
   12528.2  1.09452e+06  135820  62507.1
   12533.4  1.09719e+06  136503  62980.8
   12538.1  1.10021e+06  137254  63448
   12543.3  1.10415e+06  138103  64016.6
   12548.1  1.1093e+06  139137  64622.9
   12553.2  1.11266e+06  139933  65175.6
   12558.4  1.11605e+06  140729  65701.9
   12563.6  1.12105e+06  141726  66324.7
   12568.7  1.12459e+06  142528  66882
   12573.5  1.12989e+06  143467  67491.8
   12578.7  1.13403e+06  144301  68064.2
   12583.9  1.13662e+06  144880  68540
   12589.1  1.14047e+06  145645  69068.4
   12594.2  1.14423e+06  146320  69590.3
   12599.4  1.14786e+06  147047  70130.7
   12605  1.14981e+06  147574  70604.7
   12610.2  1.15424e+06  148407  71203.1
   12615.4  1.15641e+06  148957  71664.1
   12620.6  1.16249e+06  150079  72390.6
   12625.8  1.16581e+06  150852  72974.6
   12631.3  1.16896e+06  151650  73560.2
   12636.6  1.17454e+06  152761  74288.2
   12642.1  1.17591e+06  153346  74766.8
   12647.4  1.17976e+06  154255  75409.9
   12652.9  1.1837e+06  155222  76075.5
   12658.2  1.18498e+06  155801  76555.6
   12663.8  1.18933e+06  156758  77207.3
   12669  1.19229e+06  157497  77751.4
   12674.6  1.19476e+06  158171  78290.1
   12680.2  1.19817e+06  158954  78881.3
   12685.8  1.20073e+06  159655  79432.1
   12691.1  1.20453e+06  160411  80019.3
   12696.7  1.20746e+06  161116  80595.1
   12702.3  1.2121e+06  162042  81275.4
   12708  1.21441e+06  162635  81796.2
   12713.6  1.21681e+06  163260  82343.6
   12719.3  1.21935e+06  163926  82910.4
   12724.9  1.22359e+06  164832  83599.7
   12730.6  1.22575e+06  165457  84147.6
   12736.2  1.22779e+06  166076  84701
   12741.9  1.23187e+06  167051  85432
   12747.9  1.23642e+06  168117  86236.4
   12753.6  1.2374e+06  168675  86768.4
   12759.2  1.23965e+06  169388  87383.8
   12764.9  1.24462e+06  170516  88206.9
   12771  1.24675e+06  171256  88854.4
   12776.7  1.24866e+06  171967  89466.4
   12782.4  1.25204e+06  172862  90195
   12788.4  1.25431e+06  173613  90854.1
   12794.1  1.25617e+06  174300  91448.7
   12800.2  1.2599e+06  175186  92201.8
   12806.3  1.2622e+06  175946  92850.4
   12812  1.26785e+06  177072  93696.6
   12818.1  1.26879e+06  177589  94244.3
   12824.2  1.27136e+06  178338  94889.5
   12829.9  1.2754e+06  179245  95606.2
   12836  1.27713e+06  179893  96232.4
   12842.1  1.27873e+06  180523  96839.2
   12848.2  1.28223e+06  181418  97585.4
   12854.4  1.28441e+06  182175  98266.3
   12860.5  1.28791e+06  183111  99050.6
   12866.3  1.29069e+06  183941  99754.4
   12872.4  1.29285e+06  184656  100419
   12878.6  1.29508e+06  185468  101134
   12885.1  1.29392e+06  185776  101596