File: data/as2o3_10K_scan1.xdi
# XDI/1.0
# Column.1: energy eV
# Column.2: i0
# Column.3: itrans
# Column.4: irefer
# Beamline.name: SSRL 2-3
# Beamline.notes: vert slits = 0.6mm
# Detector.I0: N2 15cm
# Detector.I1: Ar 30cm
# Detector.I2: Ar 15cm
# Element.edge: K
# Element.symbol: As
# Mono.d_spacing: 3.13550
# Mono.name: Si(111)
# Mono.notes: unfocused, detuned 75%, clockwise at E=12000eV
# Sample.formula: As2O3
# Sample.name: As2O3 arsenious oxide
# Sample.prep: powder on tape (5 layers)
# Sample.reference: GaAs powder
# Sample.temperature: 10K
# Scan.start_time: 1997-04-19 19:47:10
# ///
#    Note: mono d_spacing is nominal!
#     exafs to K16, GaAs in IR
#     413  E XMU XMUR I0
#-------------
#   energy   i0   itrans  irefer
   11634.9  542376  61607.5  25297
   11644.9  539180  61526.5  25419
   11654.9  535543  61408.5  25506
   11665  533378  61447.5  25683
   11675.1  531708  61545.5  25871
   11684.9  529064  61519.5  26013
   11695  525158  61348.5  26085
   11705.1  523013  61389.5  26257
   11714.9  519761  61275.5  26359
   11725.1  517975  61347.5  26540
   11735  515513  61327.5  26681
   11744.9  512995  61277.5  26814
   11755.1  510041  61191.5  26925
   11765  507041  61079.5  27018
   11775  504386  60989.5  27139
   11784.9  502345  60962.5  27280
   11794.9  499575  60798.5  27360
   11804.9  497055  60655.5  27442
   11814.9  493991  60334.5  27446
   11824.9  491360  59962.5  27415
   11835  488720  59301.5  27234
   11845.1  486395  57963.5  26688
   11845.4  486107  57884.5  26660
   11846  485637  57726.5  26586
   11846.6  485481  57596.5  26530
   11846.9  485731  57573.5  26516
   11847.5  485799  57456.5  26460
   11848.1  485203  57242.5  26370
   11848.4  484767  57121.5  26306
   11849  484703  56974.5  26238
   11849.6  484972  56826.5  26169
   11849.9  484209  56664.5  26096
   11850.6  483556  56405.5  25968
   11850.9  483586  56307.5  25923
   11851.5  483910  56129.5  25840
   11852.1  483788  55881.5  25724
   11852.4  483252  55723.5  25647
   11853  483780  55524.5  25539
   11853.6  484199  55267.5  25426
   11853.9  484087  55092.5  25333
   11854.5  483815  54708.5  25149
   11855.1  484176  54352.5  24970
   11855.4  484077  54185.5  24883
   11856.1  483767  53708.5  24643
   11856.4  483579  53451.5  24522
   11857  483149  52864.5  24230
   11857.6  483255  52278.5  23928
   11857.9  483545  52060.5  23823
   11858.5  483090  51316.5  23447
   11859.1  482695  50440.5  22995
   11859.4  482929  50039.5  22788
   11860  483459  49058.5  22282
   11860.6  482936  47840.5  21668
   11861  482048  47254.5  21366
   11861.6  482486  45820.5  20625
   11861.9  482454  45071.5  20238
   11862.5  481702  43123.5  19228
   11863.1  481255  40893.5  18055
   11863.4  481529  39936.5  17549
   11864  481108  37072.5  16043
   11864.6  480675  33682.5  14272
   11864.9  479809  31858.5  13325
   11865.5  479980  27736.5  11235
   11865.9  480160  25994.5  10376
   11866.5  480661  21193.5  8092
   11867.1  480053  16257.5  5909
   11867.4  479947  14072.5  4994
   11868  480486  9873.5  3329
   11868.6  480556  6201.5  1983
   11868.9  480049  5087.5  1597
   11869.5  479647  2768.5   832.001
   11870.1  479886  1408.5   410
   11870.5  479990  1036.5   299
   11871.1  478928   647.5   184
   11871.4  478399   601.5   170
   11872  478406   656.5   184
   11872.6  478071   839.5   236
   11872.9  477727   952.5   267
   11873.5  477748  1248.5   353
   11874.1  478037  1607.5   461
   11874.4  478260  1781.5   514
   11875.1  478204  2260.5   663
   11875.4  477864  2502.5   737.999
   11876  478025  3079.5   927
   11876.6  478317  3599.5  1096
   11876.9  478000  3802.5  1165
   11877.5  477704  4182.5  1296
   11878.1  477576  4346.5  1360
   11878.4  477571  4336.5  1361
   11879  477428  4153.5  1309
   11879.4  477162  4011.5  1268
   11880  476845  3602.5  1143
   11880.6  477272  3166.5  1008
   11880.9  477139  2984.5   952.001
   11881.5  476465  2713.5   868
   11882.1  476432  2594.5   831
   11882.4  476357  2590.5   829
   11883  476368  2670.5   854.999
   11883.7  475395  2819.5   903
   11884  475326  2903.5   929.999
   11884.6  475489  3079.5   987.001
   11884.9  475535  3142.5  1009
   11885.5  474469  3278.5  1053
   11886.1  474849  3400.5  1094
   11886.4  474804  3455.5  1112
   11887  474982  3580.5  1153
   11887.6  475196  3723.5  1200
   11888  474680  3782.5  1220
   11888.6  474649  3942.5  1273
   11888.9  475314  4026.5  1299
   11889.5  475322  4183.5  1349
   11890.1  474645  4327.5  1395
   11890.4  474687  4393.5  1418
   11891  475242  4580.5  1475
   11891.6  474806  4794.5  1545
   11892  474206  4915.5  1583
   11892.6  474143  5186.5  1671
   11892.9  474404  5315.5  1716
   11893.5  474580  5603.5  1812
   11894.1  474184  5820.5  1885
   11894.4  473755  5905.5  1917
   11895  473858  6029.5  1962
   11895.6  473815  6096.25  1994.76
   11896.3  473913  6130.51  2010.04
   11896.9  473294  6137.28  2015.84
   11897.5  473627  6154.56  2027.16
   11898.4  474090  6189.35  2038.99
   11899  473945  6208.64  2041.35
   11899.7  473288  6221.44  2045.23
   11900.6  473539  6270.75  2056.62
   11901.2  474447  6327.56  2073.54
   11902.1  474227  6410.88  2099.97
   11903  473993  6506.72  2134.93
   11903.7  474757  6580.06  2157.4
   11904.6  475525  6663.9  2185.39
   11905.5  475574  6736.26  2213.9
   11906.4  475612  6807.12  2235.93
   11907.4  476006  6874.5  2263.49
   11908.3  476905  6903.37  2276.56
   11909.2  477577  6848.76  2256.15
   11910.1  478140  6709.65  2211.26
   11911.1  478928  6497.05  2140.88
   11912.3  479629  6167.96  2030.03
   11913.2  480492  5938.38  1951.7
   11914.2  481672  5729.3  1879.89
   11915.4  481112  5522.73  1815.59
   11916.3  481722  5444.67  1788.82
   11917.6  482554  5418.12  1786.56
   11918.8  483974  5448.07  1800.83
   11919.7  484440  5455.54  1812.61
   11921  485966  5421.51  1808.92
   11922.2  486827  5300.99  1771.74
   11923.4  488171  5133.98  1719.08
   11924.7  489405  4953.47  1659.94
   11925.9  490085  4795.47  1605.32
   11927.1  489930  4682.98  1570.22
   11928.4  491400  4650  1556.65
   11929.6  493678  4666.52  1563.58
   11930.9  495188  4666.56  1559.04
   11932.4  496239  4631.1  1542.02
   11933.7  496398  4612.15  1535.52
   11934.9  498603  4653.7  1543.54
   11936.4  500204  4735.76  1565.07
   11938  501701  4799.34  1585.13
   11939.2  502298  4800.42  1586.7
   11940.8  502645  4738  1568.8
   11942.3  502540  4635.1  1536.41
   11943.6  504717  4573.7  1517.55
   11945.1  509076  4519.81  1503.2
   11946.7  511183  4503.43  1499.37
   11948.2  512981  4566.56  1524.06
   11949.8  513968  4696.19  1572.28
   11951.3  516033  4860.33  1627
   11952.9  518235  4993.98  1675.26
   11954.8  519965  5091.14  1712.02
   11956.3  521893  5146.8  1736.31
   11957.9  523010  5202.97  1759.12
   11959.7  524918  5312.66  1797.45
   11961.3  527478  5437.84  1838.3
   11963.2  529273  5550.54  1877.66
   11964.7  531798  5615.74  1897.55
   11966.6  533438  5655.45  1913.96
   11968.5  535819  5723.67  1941.88
   11970  537316  5790.4  1972.33
   11971.9  539666  5859.64  2009.29
   11973.8  541938  5903.38  2036.77
   11975.6  543682  5940.63  2058.77
   11977.5  546681  6014.39  2087.3
   11979.4  549109  6128.65  2133.34
   11981.3  551003  6284.43  2186.9
   11983.1  552130  6454.71  2250.98
   11985  553189  6599.49  2295.58
   11987.2  554976  6711.79  2333.7
   11989.1  558755  6781.59  2351.34
   11991.3  562660  6831.91  2360.49
   11993.2  565442  6883.73  2371.17
   11995.3  567631  6924.05  2375.37
   11997.2  569524  6911.89  2366.08
   11999.4  572811  6849.23  2340.32
   12001.3  575249  6752.08  2307.08
   12003.5  577468  6621.44  2270.35
   12005.7  579955  6487.31  2227.14
   12007.9  582621  6354.68  2190.46
   12010.1  584275  6231.56  2151.29
   12012.3  585748  6169.95  2132.64
   12014.5  590553  6217.85  2154.52
   12016.7  594002  6308.26  2193.9
   12018.9  596077  6396.17  2232.81
   12021.1  599916  6484.59  2271.25
   12023.6  602670  6548.52  2301.19
   12025.8  605517  6601.95  2326.66
   12028  609076  6642.9  2346.65
   12030.5  610596  6620.35  2346.16
   12032.7  614507  6629.31  2356.18
   12035.3  618142  6680.77  2374.73
   12037.8  620849  6746.75  2408.8
   12040  623139  6804.24  2437.38
   12042.5  626468  6875.22  2464.49
   12045  629640  6936.72  2493.11
   12047.6  632815  6992.73  2520.25
   12050.1  635493  7051.24  2542.92
   12052.6  638224  7141.26  2578.1
   12055.2  640473  7222.79  2605.8
   12057.7  642069  7283.83  2625.02
   12060.2  649454  7424.38  2678.76
   12062.8  653015  7519.42  2710.02
   12065.3  656610  7568.99  2735.8
   12068.1  658523  7519.05  2724.1
   12070.7  662085  7451.63  2699.92
   12073.2  665809  7443.71  2693.26
   12076.1  668853  7572.3  2740.11
   12078.6  672574  7783.41  2810.49
   12081.5  674754  8000.01  2887.39
   12084.3  678983  8209.13  2957.8
   12086.9  683030  8347.75  3008.74
   12089.7  686803  8448.88  3049.19
   12092.6  688740  8486.52  3068.16
   12095.5  693076  8498.66  3085.66
   12098.3  695243  8432.31  3073.67
   12101.2  699164  8380.48  3062.2
   12104.1  702724  8374.14  3071.25
   12107  706538  8439.32  3102.82
   12109.8  710131  8551  3154.91
   12112.7  712942  8703.2  3220.52
   12115.9  716319  8894.9  3307.65
   12118.8  721891  9048.1  3375.3
   12121.6  725234  9094.82  3405.47
   12124.9  729418  9093.04  3416.16
   12127.7  731850  9066.77  3416.36
   12130.9  736710  9119.01  3443.09
   12133.8  740340  9225.76  3490.33
   12137  742888  9381.01  3550.1
   12140.2  748262  9528.77  3610.38
   12143.4  751866  9538.04  3611.19
   12146.3  754540  9471.82  3584.51
   12149.6  760770  9453.11  3582.35
   12152.8  762610  9378.89  3549.71
   12156  767404  9257.19  3506.59
   12159.2  771933  9126.01  3461
   12162.4  775749  9151.32  3473.92
   12165.6  778895  9338.14  3550.35
   12169.2  783032  9590.48  3654.32
   12172.4  788024  9792.32  3736.79
   12175.6  792080  9928.66  3798.79
   12178.9  795650  10030.5  3844.31
   12182.4  798746  10181.9  3906.35
   12185.7  803384  10416.8  4004.9
   12189.2  806769  10649.1  4101.98
   12192.5  811368  10818  4175.57
   12196  815399  10919.4  4225.69
   12199.6  818284  10987.3  4263.32
   12202.8  823510  11061.7  4303.48
   12206.4  827164  11083.6  4319.15
   12210  830381  11076.1  4326.34
   12213.5  835405  11087  4343.05
   12217.1  838265  11102.4  4368.28
   12220.7  845599  11207.4  4424.03
   12224.3  849219  11227.8  4448.3
   12227.8  854605  11214.8  4452.09
   12231.4  857179  11184.3  4452.4
   12235  862678  11267.2  4492.23
   12238.9  866301  11399.7  4560.58
   12242.5  870659  11601.7  4646.44
   12246.1  874375  11848.2  4756.83
   12250  879956  12127.2  4874.73
   12253.6  881967  12308.8  4947.16
   12257.5  886573  12535.8  5045.1
   12261.2  891090  12775.3  5144.57
   12265.1  895597  12987.4  5238.55
   12269  898850  13082.9  5280.05
   12272.6  903809  13085  5290.08
   12276.6  908899  13030.5  5271.62
   12280.5  912850  13020.6  5278.68
   12284.4  915813  13082.2  5312.26
   12288.4  922884  13165.3  5357.36
   12292.3  927393  13125.9  5354.98
   12296.3  929454  13079  5356.12
   12300.2  935089  13154.6  5401.77
   12304.2  940658  13238.7  5445.95
   12308.2  943368  13317.3  5495.65
   12312.1  946280  13432.4  5549.87
   12316.1  951699  13583.1  5625.6
   12320.4  956090  13742.2  5715.86
   12324.3  958261  13905.9  5794.63
   12328.7  965784  14205.1  5935.93
   12332.6  967780  14401.7  6034.74
   12336.6  972621  14609.9  6141.08
   12340.9  978194  14690.6  6190.93
   12345.2  982865  14614.8  6174.3
   12349.2  986293  14580.5  6172.19
   12353.5  990802  14709.7  6243.6
   12357.9  995253  14925.4  6346.53
   12362.2  1.00039e+06  15151.7  6459.98
   12366.2  1.00361e+06  15322.4  6544.95
   12370.5  1.00932e+06  15543.6  6653.44
   12374.9  1.01382e+06  15713.4  6745.44
   12379.2  1.01644e+06  15769.6  6775.97
   12383.5  1.02199e+06  15811.4  6810.02
   12387.9  1.02492e+06  15852.7  6835.59
   12392.6  1.02735e+06  15953.5  6895.67
   12396.9  1.0347e+06  16171.8  7003.28
   12401.3  1.03816e+06  16363.6  7099.4
   12405.6  1.04228e+06  16524.9  7183.05
   12410.3  1.04537e+06  16584.7  7227.2
   12414.7  1.05017e+06  16644  7262.89
   12419  1.05471e+06  16704.8  7309.09
   12423.8  1.05975e+06  16818.1  7379.81
   12428.1  1.06414e+06  16968  7459.05
   12432.8  1.06761e+06  17142.3  7554.81
   12437.6  1.0692e+06  17300.2  7639.09
   12441.9  1.07396e+06  17542.6  7771.89
   12446.7  1.0793e+06  17802.4  7911.21
   12451.4  1.08398e+06  17938.8  7996.05
   12456.1  1.08878e+06  18029.7  8056.41
   12460.5  1.09145e+06  18130.1  8124.28
   12465.3  1.09364e+06  18278  8214.68
   12470  1.10022e+06  18465.4  8324.6
   12474.7  1.10465e+06  18605.3  8410.03
   12479.5  1.10926e+06  18730.8  8488.99
   12484.2  1.1132e+06  18828.7  8553.45
   12489  1.1173e+06  18938.2  8629.45
   12494.1  1.121e+06  19058.1  8699.96
   12498.9  1.1257e+06  19132.6  8759.99
   12503.6  1.12865e+06  19187.5  8801.55
   12508.4  1.13158e+06  19300  8869.61
   12513.5  1.13347e+06  19353  8917.21
   12518.3  1.13926e+06  19497.5  9006.32
   12523.4  1.14365e+06  19695.5  9114.94
   12528.2  1.14722e+06  19894  9229.1
   12533.4  1.15114e+06  20075  9334.76
   12538.1  1.15572e+06  20211.5  9424.96
   12543.3  1.1588e+06  20364.6  9510.66
   12548.1  1.16392e+06  20588.1  9636.88
   12553.2  1.16649e+06  20825.1  9774.63
   12558.4  1.17059e+06  21036.7  9900.89
   12563.6  1.17261e+06  21173.8  9991.68
   12568.7  1.1772e+06  21376.3  10118
   12573.5  1.18033e+06  21551.4  10224.8
   12578.7  1.1859e+06  21748  10346.1
   12583.9  1.18905e+06  21882.1  10436
   12589.1  1.19026e+06  21983.7  10506.4
   12594.2  1.19532e+06  22119.8  10604.3
   12599.4  1.1984e+06  22141.4  10644.7
   12605  1.20107e+06  22192.5  10697.6
   12610.2  1.20471e+06  22326.1  10790.1
   12615.4  1.2079e+06  22492.3  10902.1
   12620.6  1.21374e+06  22710.9  11033.6
   12625.8  1.21678e+06  22876.1  11140.6
   12631.3  1.22055e+06  23055.7  11267.1
   12636.6  1.22333e+06  23191.9  11369.2
   12642.1  1.22778e+06  23415.6  11508.8
   12647.4  1.23108e+06  23646.8  11645.9
   12652.9  1.23434e+06  23899.5  11803.5
   12658.2  1.23634e+06  24120.7  11940.6
   12663.8  1.24017e+06  24338.4  12075.3
   12669  1.2445e+06  24496.6  12182.4
   12674.6  1.24678e+06  24618.3  12275.1
   12680.2  1.24993e+06  24771.5  12388.4
   12685.8  1.25185e+06  24898.3  12488.1
   12691.1  1.25789e+06  25076.5  12603.3
   12696.7  1.25947e+06  25156.3  12680.1
   12702.3  1.2628e+06  25306.5  12791.4
   12708  1.26581e+06  25481.3  12917.2
   12713.6  1.26979e+06  25645.6  13039.5
   12719.3  1.27382e+06  25773.4  13127.4
   12724.9  1.27592e+06  25872.7  13227.8
   12730.6  1.27618e+06  25962.5  13315.6
   12736.2  1.27984e+06  26153.8  13442
   12741.9  1.2845e+06  26419.6  13621
   12747.9  1.28624e+06  26661.9  13785.4
   12753.6  1.29018e+06  26900.8  13950.4
   12759.2  1.2939e+06  27100.1  14091.9
   12764.9  1.29737e+06  27321.9  14249.9
   12771  1.29991e+06  27537.3  14415.4
   12776.7  1.30374e+06  27733.1  14543.4
   12782.4  1.30694e+06  27904.5  14677
   12788.4  1.30791e+06  28070.4  14811.1
   12794.1  1.30992e+06  28251.8  14938.7
   12800.2  1.31485e+06  28481.7  15102.8
   12806.3  1.31671e+06  28610.1  15220.4
   12812  1.31756e+06  28717  15310.6
   12818.1  1.32062e+06  28896.4  15457.3
   12824.2  1.32386e+06  29112.3  15613.5
   12829.9  1.32783e+06  29319.8  15751.2
   12836  1.33106e+06  29504.7  15903.4
   12842.1  1.33214e+06  29653.1  16025.2
   12848.2  1.33599e+06  29895.1  16192.4
   12854.4  1.33597e+06  30048.6  16314.2
   12860.5  1.33836e+06  30234.5  16460.5
   12866.3  1.34287e+06  30445  16625.4
   12872.4  1.34531e+06  30628  16784.7
   12878.6  1.34721e+06  30820.5  16927.6
   12885.1  1.34912e+06  31030.5  17101