File: data/as2o5_100K_scan3.xdi
# XDI/1.0
# Column.1: energy eV
# Column.2: i0
# Column.3: itrans
# Column.4: irefer
# Beamline.name: SSRL 2-3
# Beamline.notes: vert slits = 0.6mm
# Detector.I0: N2 15cm
# Detector.I1: Ar 30cm
# Detector.I2: Ar 15cm
# Element.edge: K
# Element.symbol: As
# Mono.d_spacing: 3.13550
# Mono.name: Si(111)
# Mono.notes: unfocused, detuned 75%, clockwise at E=12000eV
# Sample.formula: As2O5
# Sample.name: As2O5 arsenic (V) oxide
# Sample.prep: powder on tape (5 layers)
# Sample.reference: GaAs powder
# Sample.temperature: 100K
# Scan.start_time: 1997-04-19 21:41:34
# ///
#    Note: mono d_spacing is nominal!
#     exafs to K16, GaAs in IR
#     413  E XMU XMUR I0
#-------------
#   energy   i0   itrans  irefer
   11634.9  523836  93061.5  37898
   11644.9  521327  92993.5  38097
   11654.9  518803  92865.5  38282
   11665  516406  92785.5  38477
   11675.1  514093  92710.5  38679
   11684.9  511342  92552.5  38829
   11695  508065  92281.5  38947
   11705.1  505695  92196.5  39145
   11714.9  503134  92074.5  39305
   11725.1  500929  91987.5  39488
   11735  498999  91977.5  39718
   11744.9  496185  91785.5  39870
   11755.1  493115  91513.5  39969
   11765  491012  91443.5  40172
   11775  488571  91293.5  40345
   11784.9  486429  91187.5  40513
   11794.9  483558  90935.5  40635
   11804.9  480797  90688.5  40746
   11814.9  478146  90410.5  40834
   11824.9  475850  90140.5  40909
   11835  473419  89736.5  40903
   11845.1  471200  89104.5  40728
   11845.4  470304  88909.5  40647
   11846  470783  88955.5  40665
   11846.6  470798  88938.5  40658
   11846.9  470346  88839.5  40621
   11847.5  470319  88792.5  40597
   11848.1  469562  88621.5  40514
   11848.4  469866  88624.5  40519
   11849  469687  88561.5  40492
   11849.6  468827  88359.5  40382
   11849.9  468583  88286.5  40349
   11850.6  468792  88260.5  40341
   11850.9  468737  88231.5  40324
   11851.5  468565  88128.5  40261
   11852.1  468647  88054.5  40224
   11852.4  468739  88042.5  40211
   11853  469153  88033.5  40190
   11853.6  469031  87928.5  40136
   11853.9  468608  87785.5  40060
   11854.5  469002  87744.5  40019
   11855.1  469172  87676.5  39962
   11855.4  468404  87481.5  39861
   11856.1  468451  87349.5  39763
   11856.4  468534  87291.5  39716
   11857  468622  87162.5  39620
   11857.6  468612  86946.5  39457
   11857.9  467890  86724.5  39328
   11858.5  467762  86497.5  39157
   11859.1  467800  86268.5  38965
   11859.4  467294  86064.5  38811
   11860  467330  85762.5  38554
   11860.6  467323  85436.5  38261
   11861  467680  85349.5  38133
   11861.6  467288  84881.5  37699
   11861.9  466540  84531.5  37411
   11862.5  466265  83963.5  36788
   11863.1  466722  83455.5  36038
   11863.4  466019  83073.5  35595
   11864  465609  82238.5  34344
   11864.6  465506  81316.5  32699
   11864.9  465728  80862.5  31792
   11865.5  465634  79617.5  29546
   11865.9  465230  79007.5  28572
   11866.5  465627  77424.5  26053
   11867.1  465645  75356.5  23588
   11867.4  465633  74198.5  22504
   11868  465531  71144.5  20359
   11868.6  466072  67330.5  18507
   11868.9  465752  65505.5  17810
   11869.5  465107  60070.5  16053
   11870.1  464717  53357.5  14180
   11870.5  464609  49910.5  13264
   11871.1  464430  42175.5  11254
   11871.4  464613  39036.5  10438
   11872  463738  30876.5  8327
   11872.6  463529  23497.5  6409
   11872.9  463465  20434.5  5604
   11873.5  463930  15174.5  4219
   11874.1  463698  11989.5  3391
   11874.4  463425  11225.5  3199
   11875.1  463747  10639.5  3097
   11875.4  463938  10883.5  3201
   11876  463687  12216.5  3664
   11876.6  463636  14246.5  4341
   11876.9  463732  15196.5  4655
   11877.5  463085  17671.5  5475
   11878.1  462985  20262.5  6330
   11878.4  463153  21480.5  6730
   11879  463288  23848.5  7517
   11879.4  463028  24698.5  7803
   11880  462568  26663.5  8468
   11880.6  462221  28287.5  9018.99
   11880.9  462727  28950.5  9240
   11881.5  462348  29964.5  9588
   11882.1  461967  30609.5  9806
   11882.4  461941  30814.5  9876
   11883  462075  31147.5  9971
   11883.7  461719  31298.5  10022
   11884  461262  31323.5  10025
   11884.6  461120  31391.5  10048
   11884.9  460568  31382.5  10050
   11885.5  460716  31447.5  10072
   11886.1  460158  31486.5  10099
   11886.4  460240  31538.5  10123
   11887  460729  31673.5  10175
   11887.6  460687  31811.5  10225
   11888  460268  31851.5  10233
   11888.6  460285  32060.5  10304
   11888.9  461148  32223.5  10354
   11889.5  460739  32487.5  10432
   11890.1  460362  32807.5  10523
   11890.4  460641  32975.5  10578
   11891  460243  33361.5  10700
   11891.6  460501  33766.5  10821
   11892  459855  33931.5  10877
   11892.6  460472  34371.5  11028
   11892.9  460304  34516.5  11083
   11893.5  460197  34886.5  11219
   11894.1  459434  35186.5  11353
   11894.4  459386  35355.5  11421
   11895  459576  35689.5  11572
   11895.6  459368  35957.3  11696.8
   11896.3  459260  36193.5  11811
   11896.9  459181  36410.3  11905.8
   11897.5  459618  36652.6  11999.2
   11898.4  459603  36980.3  12102
   11899  459310  37229.6  12175.4
   11899.7  459229  37572.4  12272.2
   11900.6  459884  38270.7  12471.6
   11901.2  459485  38686.6  12604.5
   11902.1  459495  39414.9  12835
   11903  460169  40233.7  13100.9
   11903.7  460922  40766.1  13292.4
   11904.6  461108  41415.9  13509.4
   11905.5  460829  42033.2  13738.9
   11906.4  461571  42681.1  13967.9
   11907.4  462143  43321.5  14190.5
   11908.3  462579  43836.4  14374.6
   11909.2  463257  44342.8  14539.1
   11910.1  463083  44644.6  14639.2
   11911.1  464169  44954  14731.9
   11912.3  464969  45068  14754
   11913.2  465259  44960.4  14692.7
   11914.2  465924  44757.3  14622.9
   11915.4  466988  44377.7  14503.6
   11916.3  468292  44077.7  14414.8
   11917.6  468683  43452.1  14270.6
   11918.8  468930  42760.1  14109.8
   11919.7  469879  42288.6  14006.6
   11921  470893  41660.5  13856.9
   11922.2  471989  41140  13714.7
   11923.4  472882  40715  13594.1
   11924.7  473408  40339.5  13476.9
   11925.9  474625  40091.5  13415.3
   11927.1  476125  39896  13355.2
   11928.4  476627  39615  13260.7
   11929.6  478015  39364.5  13167.6
   11930.9  479106  39078.6  13053
   11932.4  480823  38720.1  12893
   11933.7  482732  38496.2  12783.5
   11934.9  483869  38250.7  12662.5
   11936.4  484582  37980.8  12538.1
   11938  485886  37866.4  12478.1
   11939.2  486828  37811.4  12458.7
   11940.8  487438  37734  12449.8
   11942.3  488404  37714.1  12472.4
   11943.6  489631  37779.7  12514.5
   11945.1  493099  38024.8  12622.2
   11946.7  495970  38241.4  12707.4
   11948.2  497661  38375.6  12779.1
   11949.8  498991  38531.2  12856.3
   11951.3  500334  38722.3  12944
   11952.9  502176  38997  13051.2
   11954.8  503481  39290.1  13185
   11956.3  506007  39642.8  13343.3
   11957.9  508309  39994  13489.1
   11959.7  510011  40326.7  13614.4
   11961.3  511782  40610.9  13704.3
   11963.2  513262  40873.6  13787.7
   11964.7  515683  41175.8  13886.6
   11966.6  517831  41472.5  13996
   11968.5  519679  41761.7  14140.9
   11970  521641  42083.4  14313.3
   11971.9  524068  42530.6  14560.3
   11973.8  526147  43022.4  14813.8
   11975.6  527585  43522.6  15047.8
   11977.5  529756  44086.4  15277.3
   11979.4  532554  44698.7  15515.3
   11981.3  534479  45210.4  15709.9
   11983.1  536290  45658.7  15871
   11985  537821  46010.5  15974.6
   11987.2  538888  46305.8  16044.7
   11989.1  542452  46727.6  16160.3
   11991.3  546316  47191.9  16253.5
   11993.2  548764  47519.7  16311.2
   11995.3  551369  47891.1  16375.4
   11997.2  553020  48111.9  16405.1
   11999.4  555932  48429.2  16494.3
   12001.3  558228  48678.1  16592.1
   12003.5  560865  48930.5  16706.4
   12005.7  563722  49171.3  16834.1
   12007.9  565119  49278.7  16908.4
   12010.1  567358  49449.6  17013.3
   12012.3  569726  49606  17111.6
   12014.5  573133  49826.9  17240.5
   12016.7  577914  50167.3  17409.9
   12018.9  580207  50313.2  17509.8
   12021.1  582430  50455.6  17614.2
   12023.6  586346  50710.5  17766.2
   12025.8  588991  50811  17858.7
   12028  591888  50898.9  17936.6
   12030.5  594159  50871.3  17967.2
   12032.7  597864  50998.3  18055.2
   12035.3  600428  51026.8  18106.7
   12037.8  603757  51168.8  18199.8
   12040  605935  51276.2  18278.4
   12042.5  609852  51621.2  18442.5
   12045  612410  51936.7  18594.1
   12047.6  614951  52304.7  18768.2
   12050.1  617865  52732.2  18948.9
   12052.6  620942  53129.3  19106.1
   12055.2  622084  53341.8  19161.8
   12057.7  626057  53755.8  19284
   12060.2  631146  54296.4  19478.8
   12062.8  634324  54652.4  19627
   12065.3  637861  55043  19813.8
   12068.1  641133  55410  19984.1
   12070.7  644341  55806.6  20138.9
   12073.2  648707  56305.7  20306.3
   12076.1  649828  56551.3  20365.1
   12078.6  654963  57121.4  20557.5
   12081.5  657500  57454  20646.4
   12084.3  661386  57902.1  20794.8
   12086.9  663593  58195.7  20913.7
   12089.7  668549  58756.9  21134.2
   12092.6  672547  59210.5  21354.2
   12095.5  674017  59510.6  21535.7
   12098.3  678154  60007.3  21798.7
   12101.2  681361  60435.4  22029.2
   12104.1  685214  60937.1  22283.3
   12107  688434  61371.3  22507.8
   12109.8  691567  61815  22746.9
   12112.7  693173  62117.2  22936.5
   12115.9  699761  62828.9  23288.7
   12118.8  702611  63190.1  23510.3
   12121.6  707406  63737.8  23799.5
   12124.9  710022  64133  24044.2
   12127.7  714024  64657.7  24294.4
   12130.9  718477  65232  24564.1
   12133.8  722247  65702.7  24776.3
   12137  723592  65965  24893.1
   12140.2  729447  66605.8  25123.4
   12143.4  732998  67039  25288.2
   12146.3  736893  67468.8  25446.5
   12149.6  740201  67801.1  25580.3
   12152.8  744968  68241.9  25751.7
   12156  749069  68578.2  25896.6
   12159.2  752323  68872  26031
   12162.4  757074  69320.3  26234.9
   12165.6  759223  69551.2  26370.4
   12169.2  764532  70066.5  26618.3
   12172.4  768526  70525.3  26844.8
   12175.6  772893  71074.6  27101.8
   12178.9  776563  71584.5  27342.3
   12182.4  781185  72234.8  27629.3
   12185.7  784971  72683.7  27835.9
   12189.2  787365  72999.1  28010
   12192.5  792512  73535.1  28275.6
   12196  796314  73949.4  28515.7
   12199.6  799975  74387.3  28759.3
   12202.8  804280  74947.7  29024.5
   12206.4  807784  75479.6  29309.1
   12210  811941  76149  29652.3
   12213.5  817085  76858  30021
   12217.1  820785  77342.4  30323.3
   12220.7  824954  77791.4  30599
   12224.3  829031  78221.9  30866.3
   12227.8  832862  78659.8  31135.1
   12231.4  837545  79281.3  31467.4
   12235  840450  79750.2  31723.2
   12238.9  844900  80350.7  32047.6
   12242.5  849064  80927.8  32346.5
   12246.1  853151  81519.2  32631.8
   12250  857610  82130.2  32897.7
   12253.6  861347  82622.7  33114.1
   12257.5  864907  83081.8  33298.1
   12261.2  868793  83607.3  33549.6
   12265.1  873215  84225.3  33853.5
   12269  875668  84661.9  34085.1
   12272.6  882243  85451.9  34447.1
   12276.6  886872  86091.5  34761.6
   12280.5  889334  86565.6  35025.7
   12284.4  894765  87356.2  35396.3
   12288.4  899700  88078.3  35773.4
   12292.3  904188  88747.8  36144
   12296.3  906158  89169  36400.1
   12300.2  911495  89906.6  36808.8
   12304.2  916587  90561.7  37179.9
   12308.2  918557  90915.4  37407.7
   12312.1  924705  91627.5  37796.9
   12316.1  928812  92131.1  38106.6
   12320.4  932640  92644.2  38432.9
   12324.3  936294  93191.9  38749.6
   12328.7  941048  93841.1  39132.9
   12332.6  945215  94451.7  39485.7
   12336.6  950139  95115.9  39874.1
   12340.9  953740  95663.6  40209.9
   12345.2  958011  96284.8  40565.3
   12349.2  961563  96801.5  40886.2
   12353.5  965633  97405.7  41240.6
   12357.9  968844  97938.5  41548.5
   12362.2  972934  98560.6  41891
   12366.2  977590  99187.4  42258
   12370.5  982470  99900.7  42660.5
   12374.9  987063  100614  43068.4
   12379.2  991135  101270  43428
   12383.5  994317  101771  43722
   12387.9  998734  102393  44067.6
   12392.6  1.00097e+06  102822  44333.7
   12396.9  1.00774e+06  103687  44797.3
   12401.3  1.01102e+06  104218  45098.4
   12405.6  1.01582e+06  104927  45510
   12410.3  1.02042e+06  105630  45905.2
   12414.7  1.02341e+06  106211  46259.9
   12419  1.02794e+06  106963  46688.1
   12423.8  1.03404e+06  107937  47239.8
   12428.1  1.03688e+06  108530  47621
   12432.8  1.04027e+06  109122  48012.8
   12437.6  1.04302e+06  109630  48361.1
   12441.9  1.04948e+06  110480  48865.9
   12446.7  1.05198e+06  110962  49220.2
   12451.4  1.05736e+06  111703  49706
   12456.1  1.06181e+06  112375  50141.4
   12460.5  1.06399e+06  112817  50468.3
   12465.3  1.06713e+06  113414  50867.7
   12470  1.07267e+06  114312  51416.6
   12474.7  1.07968e+06  115359  52029.1
   12479.5  1.08276e+06  115991  52442
   12484.2  1.0853e+06  116550  52826.5
   12489  1.09037e+06  117385  53317.5
   12494.1  1.09306e+06  118028  53735
   12498.9  1.09744e+06  118794  54200
   12503.6  1.1001e+06  119347  54573.5
   12508.4  1.10398e+06  120030  55000.6
   12513.5  1.10589e+06  120538  55381.2
   12518.3  1.11134e+06  121382  55895.3
   12523.4  1.11511e+06  122045  56336.9
   12528.2  1.11832e+06  122619  56747.1
   12533.4  1.12277e+06  123371  57229.8
   12538.1  1.12718e+06  124138  57718
   12543.3  1.13003e+06  124731  58148.7
   12548.1  1.13409e+06  125449  58583.9
   12553.2  1.1397e+06  126319  59152.6
   12558.4  1.14153e+06  126835  59538.9
   12563.6  1.14528e+06  127585  60037.7
   12568.7  1.14887e+06  128287  60539
   12573.5  1.15266e+06  128982  61000.8
   12578.7  1.15693e+06  129744  61529.2
   12583.9  1.15929e+06  130327  61972
   12589.1  1.16434e+06  131183  62539.4
   12594.2  1.16727e+06  131771  62994.3
   12599.4  1.17224e+06  132613  63585.7
   12605  1.17525e+06  133266  64084.6
   12610.2  1.17846e+06  133925  64576.1
   12615.4  1.18099e+06  134489  65040.1
   12620.6  1.1864e+06  135444  65680.6
   12625.8  1.18994e+06  136210  66229.6
   12631.3  1.19352e+06  137016  66811.2
   12636.6  1.19613e+06  137722  67333.2
   12642.1  1.20034e+06  138596  67933.8
   12647.4  1.20281e+06  139218  68404.8
   12652.9  1.2057e+06  139864  68915.5
   12658.2  1.20859e+06  140460  69375.6
   12663.8  1.21123e+06  141080  69859.2
   12669  1.21622e+06  141977  70486.4
   12674.6  1.21757e+06  142481  70915.1
   12680.2  1.22437e+06  143631  71667.3
   12685.8  1.22528e+06  144082  72073.1
   12691.1  1.2316e+06  145176  72809.3
   12696.7  1.23331e+06  145742  73292.1
   12702.3  1.23503e+06  146295  73769.4
   12708  1.23849e+06  147090  74367.2
   12713.6  1.24183e+06  147875  74975.5
   12719.3  1.24804e+06  149004  75753.4
   12724.9  1.25049e+06  149690  76300.8
   12730.6  1.25295e+06  150418  76902.6
   12736.2  1.25582e+06  151140  77473
   12741.9  1.2577e+06  151753  78018
   12747.9  1.26155e+06  152657  78723.4
   12753.6  1.26305e+06  153247  79252.4
   12759.2  1.26732e+06  154121  79902.8
   12764.9  1.2696e+06  154763  80444.9
   12771  1.27303e+06  155506  81090.4
   12776.7  1.28026e+06  156758  81956.4
   12782.4  1.28126e+06  157249  82460
   12788.4  1.28423e+06  158017  83107
   12794.1  1.28517e+06  158541  83605.7
   12800.2  1.28787e+06  159228  84206.8
   12806.3  1.29051e+06  159929  84828.4
   12812  1.29471e+06  160869  85554.6
   12818.1  1.29626e+06  161484  86125.3
   12824.2  1.29676e+06  161973  86634.4
   12829.9  1.30146e+06  162943  87363.2
   12836  1.30353e+06  163595  87956.4
   12842.1  1.30717e+06  164461  88671.2
   12848.2  1.31134e+06  165368  89387.4
   12854.4  1.31173e+06  165842  89897.2
   12860.5  1.31278e+06  166403  90461.6
   12866.3  1.31356e+06  166919  90975.4
   12872.4  1.3183e+06  168004  91835.8
   12878.6  1.32086e+06  168765  92493.6
   12885.1  1.32269e+06  169488  93195