File: data/as2o3_10K_scan2.xdi
# XDI/1.0
# Column.1: energy eV
# Column.2: i0
# Column.3: itrans
# Column.4: irefer
# Beamline.name: SSRL 2-3
# Beamline.notes: vert slits = 0.6mm
# Detector.I0: N2 15cm
# Detector.I1: Ar 30cm
# Detector.I2: Ar 15cm
# Element.edge: K
# Element.symbol: As
# Mono.d_spacing: 3.13550
# Mono.name: Si(111)
# Mono.notes: unfocused, detuned 75%, clockwise at E=12000eV
# Sample.formula: As2O3
# Sample.name: As2O3 arsenious oxide
# Sample.prep: powder on tape (5 layers)
# Sample.reference: GaAs powder
# Sample.temperature: 10K
# Scan.start_time: 1997-04-19 19:47:10
# ///
#    Note: mono d_spacing is nominal!
#     exafs to K16, GaAs in IR
#     413  E XMU XMUR I0
#-------------
#   energy   i0   itrans  irefer
   11634.9  537571  61044.5  25044
   11644.9  535608  61098.5  25215
   11654.9  532987  61103.5  25367
   11665  529412  60994.5  25477
   11675.1  526702  60959.5  25611
   11684.9  523978  60914.5  25736
   11695  520475  60795.5  25845
   11705.1  518873  60894.5  26031
   11714.9  516373  60876.5  26170
   11725.1  513490  60803.5  26286
   11735  510709  60748.5  26414
   11744.9  507863  60666.5  26525
   11755.1  505582  60642.5  26667
   11765  503152  60599.5  26803
   11775  500626  60506.5  26913
   11784.9  497723  60385.5  27006
   11794.9  494793  60218.5  27087
   11804.9  492519  60102.5  27168
   11814.9  490071  59859.5  27209
   11824.9  488004  59525.5  27191
   11835  484753  58814.5  26987
   11845.1  482323  57435.5  26441
   11845.4  481918  57331.5  26386
   11846  482228  57265.5  26357
   11846.6  481801  57103.5  26278
   11846.9  481448  57023.5  26244
   11847.5  481435  56878.5  26186
   11848.1  481605  56758.5  26130
   11848.4  481410  56686.5  26089
   11849  480619  56422.5  25968
   11849.6  480234  56211.5  25870
   11849.9  479880  56106.5  25819
   11850.6  479770  55900.5  25725
   11850.9  479280  55736.5  25646
   11851.5  479544  55544.5  25560
   11852.1  479656  55329.5  25438
   11852.4  479792  55249.5  25407
   11853  479598  54955.5  25257
   11853.6  479581  54654.5  25118
   11853.9  479981  54541.5  25053
   11854.5  480184  54187.5  24891
   11855.1  479988  53786.5  24677
   11855.4  479526  53581.5  24582
   11856.1  479875  53133.5  24361
   11856.4  479931  52909.5  24239
   11857  479593  52333.5  23951
   11857.6  479257  51670.5  23624
   11857.9  479474  51444.5  23508
   11858.5  479441  50678.5  23124
   11859.1  479099  49817.5  22684
   11859.4  478279  49305.5  22426
   11860  478744  48305.5  21913
   11860.6  478709  47132.5  21309
   11861  478216  46562.5  21019
   11861.6  477862  45016.5  20231
   11861.9  478357  44291.5  19839
   11862.5  478077  42325.5  18826
   11863.1  476962  40188.5  17697
   11863.4  476628  39066.5  17117
   11864  476705  36091.5  15552
   11864.6  476806  32677.5  13760
   11864.9  476538  30857.5  12820
   11865.5  476355  26651.5  10704
   11865.9  476703  24898.5  9846
   11866.5  476795  20065.5  7581
   11867.1  476437  15232.5  5476
   11867.4  476226  13082.5  4589
   11868  476068  8955.5  2984
   11868.6  476982  5509.5  1738
   11868.9  476340  4464.5  1385
   11869.5  476050  2377.5   706
   11870.1  475941  1202.5   346
   11870.5  475953   901.5   256
   11871.1  475526   615.5   172
   11871.4  475026   591.5   166
   11872  474830   674.5   189
   11872.6  474640   872.5   244
   11872.9  474502   989.5   278
   11873.5  474020  1287.5   364
   11874.1  474317  1657.5   474
   11874.4  474891  1840.5   530
   11875.1  474780  2338.5   685
   11875.4  474186  2581.5   763
   11876  474465  3144.5   945
   11876.6  474883  3666.5  1118
   11876.9  474921  3850.5  1180
   11877.5  474161  4184.5  1296
   11878.1  473959  4312.5  1351
   11878.4  474115  4288.5  1344
   11879  474358  4075.5  1287
   11879.4  473770  3925.5  1241
   11880  473876  3499.5  1112
   11880.6  473682  3079.5   982
   11880.9  473766  2910.5   929.001
   11881.5  473263  2659.5   852
   11882.1  473080  2573.5   824
   11882.4  473364  2579.5   826
   11883  473366  2673.5   857
   11883.7  472494  2829.5   902.999
   11884  472206  2912.5   931
   11884.6  472035  3084.5   987
   11884.9  471914  3144.5  1008
   11885.5  471236  3277.5  1051
   11886.1  471438  3397.5  1089
   11886.4  471420  3450.5  1106
   11887  471781  3580.5  1152
   11887.6  471420  3716.5  1195
   11888  471298  3780.5  1216
   11888.6  471779  3947.5  1270
   11888.9  471957  4019.5  1294
   11889.5  471288  4171.5  1342
   11890.1  470973  4317.5  1386
   11890.4  471208  4384.5  1407
   11891  470986  4569.5  1469
   11891.6  470730  4788.5  1538
   11892  470472  4914.5  1579
   11892.6  470686  5197.5  1673
   11892.9  470778  5312.5  1711
   11893.5  470627  5589.5  1802
   11894.1  470191  5797.5  1877
   11894.4  470184  5877.5  1906
   11895  470159  5992.5  1949
   11895.6  469808  6050.25  1977.76
   11896.3  469771  6076.51  1991.04
   11896.9  469543  6089.29  1996.84
   11897.5  470102  6111.56  2006.16
   11898.4  469758  6131.35  2014.99
   11899  469459  6149.64  2020.35
   11899.7  469576  6175.44  2027.23
   11900.6  470253  6229.75  2038.62
   11901.2  470192  6272.57  2052.54
   11902.1  470141  6356.89  2075.97
   11903  470405  6461.72  2110.92
   11903.7  471115  6530.06  2136.4
   11904.6  471279  6605.91  2162.39
   11905.5  471213  6673.26  2187.9
   11906.4  471727  6750.12  2214.93
   11907.4  472928  6828.49  2247.49
   11908.3  473373  6849.37  2254.55
   11909.2  473654  6788.76  2238.15
   11910.1  473610  6644.65  2185.26
   11911.1  475228  6440.05  2117.88
   11912.3  475954  6115.96  2008.03
   11913.2  476498  5887.37  1929.7
   11914.2  476577  5669.3  1858.89
   11915.4  477531  5478.73  1794.59
   11916.3  478583  5408.67  1772.82
   11917.6  478920  5376.12  1768.56
   11918.8  479857  5400.08  1786.83
   11919.7  480710  5413.54  1795.61
   11921  482414  5379.51  1794.92
   11922.2  483363  5258.99  1758.74
   11923.4  484203  5086.97  1706.08
   11924.7  484936  4904.47  1644.94
   11925.9  485391  4748.47  1594.32
   11927.1  487011  4652.98  1564.22
   11928.4  487975  4617  1549.65
   11929.6  489230  4624.52  1549.58
   11930.9  490768  4625.56  1548.04
   11932.4  492458  4597.1  1534.02
   11933.7  493895  4590.14  1528.52
   11934.9  495095  4622.7  1534.54
   11936.4  495887  4697.77  1555.07
   11938  497183  4757.34  1571.13
   11939.2  498348  4761.42  1573.7
   11940.8  499420  4706  1556.8
   11942.3  499631  4607.1  1526.41
   11943.6  500972  4538.7  1506.55
   11945.1  503822  4475.81  1490.2
   11946.7  507015  4471.43  1490.37
   11948.2  509068  4537.56  1514.06
   11949.8  510679  4671.19  1560.28
   11951.3  511645  4826.33  1615.01
   11952.9  513843  4956.98  1662.26
   11954.8  515035  5048.14  1697.02
   11956.3  517570  5110.8  1721.31
   11957.9  519348  5171.98  1744.12
   11959.7  521455  5282.66  1783.45
   11961.3  522932  5397.85  1823.3
   11963.2  524330  5504.54  1855.66
   11964.7  527285  5567.75  1880.55
   11966.6  529300  5610.46  1895.96
   11968.5  531225  5677.67  1922.88
   11970  533691  5754.4  1959.32
   11971.9  535733  5818.64  1993.29
   11973.8  537176  5853.38  2018.77
   11975.6  539704  5900.63  2044.78
   11977.5  541895  5966.38  2073.29
   11979.4  544023  6072.65  2112.34
   11981.3  546631  6237.42  2172.9
   11983.1  548698  6414.71  2232.98
   11985  550204  6568.5  2284.58
   11987.2  550874  6665.79  2315.7
   11989.1  554576  6731.59  2336.34
   11991.3  558722  6786.91  2344.5
   11993.2  561220  6836.73  2352.17
   11995.3  562823  6867.05  2353.37
   11997.2  564347  6850.89  2344.08
   11999.4  567818  6791.23  2319.32
   12001.3  570935  6705.08  2288.08
   12003.5  573602  6578.44  2253.35
   12005.7  576667  6453.31  2214.14
   12007.9  578525  6313.68  2170.46
   12010.1  580504  6194.56  2133.29
   12012.3  582119  6135.95  2120.64
   12014.5  585326  6167.85  2139.51
   12016.7  590086  6274.26  2182.9
   12018.9  592601  6367.17  2221.81
   12021.1  595235  6437.59  2254.25
   12023.6  598455  6507.52  2288.19
   12025.8  601672  6566.96  2315.66
   12028  604253  6594.9  2331.65
   12030.5  607500  6592.35  2334.16
   12032.7  610316  6589.31  2340.18
   12035.3  613834  6639.78  2365.73
   12037.8  616533  6703.75  2393.8
   12040  619227  6766.23  2421.38
   12042.5  623087  6844.22  2454.49
   12045  625414  6895.72  2477.11
   12047.6  628176  6944.73  2498.25
   12050.1  630179  6998.24  2522.92
   12052.6  633945  7098.26  2560.1
   12055.2  636115  7178.79  2587.8
   12057.7  638539  7249.83  2612.02
   12060.2  645235  7381.38  2655.76
   12062.8  648112  7468.42  2691.02
   12065.3  651791  7517.98  2713.8
   12068.1  655741  7487.06  2710.1
   12070.7  658856  7415.63  2682.92
   12073.2  662322  7406.71  2681.26
   12076.1  664519  7534.3  2724.11
   12078.6  669484  7759.4  2801.49
   12081.5  670892  7965.01  2872.39
   12084.3  675410  8171.12  2944.8
   12086.9  680134  8318.75  2997.74
   12089.7  683593  8413.87  3033.19
   12092.6  685732  8451.51  3058.16
   12095.5  690306  8465.66  3072.66
   12098.3  692125  8393.31  3059.67
   12101.2  696253  8345.48  3053.2
   12104.1  699544  8338.14  3061.25
   12107  703794  8409.31  3096.82
   12109.8  707420  8522.01  3147.91
   12112.7  710784  8680.2  3215.52
   12115.9  715248  8888.89  3307.65
   12118.8  717547  8995.1  3360.3
   12121.6  722779  9066.82  3397.47
   12124.9  725402  9043.04  3402.16
   12127.7  729621  9037.77  3408.36
   12130.9  734248  9092.01  3439.09
   12133.8  737101  9188.75  3475.33
   12137  739449  9338.01  3534.1
   12140.2  745066  9492.77  3595.38
   12143.4  748475  9497.05  3594.19
   12146.3  753372  9460.82  3577.51
   12149.6  756446  9405.1  3556.35
   12152.8  759795  9343.89  3537.71
   12156  763253  9208.2  3485.6
   12159.2  767560  9078  3438
   12162.4  772828  9125.32  3461.92
   12165.6  774657  9294.14  3532.35
   12169.2  780720  9571.47  3645.31
   12172.4  785224  9761.32  3724.79
   12175.6  788656  9891.66  3782.79
   12178.9  793096  10005.5  3832.31
   12182.4  795983  10156.9  3896.35
   12185.7  801142  10392.8  3989.9
   12189.2  803645  10617.1  4085.98
   12192.5  808690  10791  4161.57
   12196  813122  10903.4  4212.69
   12199.6  816084  10969.3  4246.32
   12202.8  821494  11042.7  4288.48
   12206.4  823574  11045.6  4295.15
   12210  828715  11060.1  4312.34
   12213.5  833840  11074  4329.05
   12217.1  835731  11078.4  4349.28
   12220.7  841315  11156.4  4393.03
   12224.3  845825  11182.8  4421.3
   12227.8  850564  11165.8  4427.09
   12231.4  853180  11135.3  4422.4
   12235  858023  11210.2  4470.23
   12238.9  862180  11350.7  4532.57
   12242.5  867373  11564.7  4632.44
   12246.1  869294  11792.2  4727.83
   12250  874384  12063.2  4841.74
   12253.6  879912  12284.8  4930.16
   12257.5  883091  12495.8  5020.1
   12261.2  887882  12735.3  5118.57
   12265.1  891242  12930.4  5207.55
   12269  892901  13000.9  5245.05
   12272.6  899746  13029  5265.08
   12276.6  904933  12978.5  5249.62
   12280.5  906853  12940.6  5245.68
   12284.4  912443  13040.2  5300.26
   12288.4  917973  13102.3  5335.36
   12292.3  920703  13035.9  5314.98
   12296.3  925904  13042  5336.12
   12300.2  929528  13093.6  5373.77
   12304.2  934304  13162.7  5414.96
   12308.2  938907  13276.3  5473.65
   12312.1  942103  13391.4  5533.87
   12316.1  947075  13536.1  5610.61
   12320.4  951304  13691.2  5695.86
   12324.3  955866  13888.9  5789.64
   12328.7  960302  14141.1  5913.93
   12332.6  964302  14367.7  6018.74
   12336.6  967703  14554.9  6112.07
   12340.9  972520  14616.6  6156.93
   12345.2  977413  14544.8  6142.3
   12349.2  980945  14515.5  6146.19
   12353.5  985870  14653.7  6215.6
   12357.9  989382  14856.4  6310.53
   12362.2  993818  15065.7  6417.98
   12366.2  998807  15266.4  6515.95
   12370.5  1.00297e+06  15464.6  6620.43
   12374.9  1.00797e+06  15638.4  6712.45
   12379.2  1.01191e+06  15707.6  6750.97
   12383.5  1.01534e+06  15719.4  6771.02
   12387.9  1.01919e+06  15775.7  6805.58
   12392.6  1.02128e+06  15871.5  6856.67
   12396.9  1.02769e+06  16071.8  6961.27
   12401.3  1.0322e+06  16276.6  7063.4
   12405.6  1.03678e+06  16440.9  7146.04
   12410.3  1.04031e+06  16508.7  7190.21
   12414.7  1.04495e+06  16570  7231.89
   12419  1.04963e+06  16631.8  7275.09
   12423.8  1.05491e+06  16746.2  7347.82
   12428.1  1.05792e+06  16871  7422.05
   12432.8  1.06117e+06  17045.3  7516.81
   12437.6  1.06462e+06  17238.2  7627.1
   12441.9  1.07098e+06  17501.6  7763.89
   12446.7  1.07459e+06  17729.4  7881.21
   12451.4  1.0796e+06  17867.8  7966.05
   12456.1  1.08424e+06  17953.7  8032.41
   12460.5  1.08535e+06  18037.1  8086.28
   12465.3  1.08877e+06  18207  8194.68
   12470  1.09475e+06  18383.4  8291.6
   12474.7  1.09828e+06  18510.3  8372.02
   12479.5  1.10286e+06  18632.8  8450.98
   12484.2  1.10743e+06  18738.7  8509.45
   12489  1.11152e+06  18850.2  8584.45
   12494.1  1.1144e+06  18957.1  8648.96
   12498.9  1.11601e+06  18981.6  8678.99
   12503.6  1.1216e+06  19084.5  8745.54
   12508.4  1.12626e+06  19223  8832.62
   12513.5  1.12837e+06  19280  8879.21
   12518.3  1.13312e+06  19407.5  8955.32
   12523.4  1.13781e+06  19605.5  9068.94
   12528.2  1.1421e+06  19815  9190.1
   12533.4  1.14539e+06  19980  9294.76
   12538.1  1.1493e+06  20111.5  9376.95
   12543.3  1.15256e+06  20273.6  9476.66
   12548.1  1.15799e+06  20497.1  9605.88
   12553.2  1.16148e+06  20749.1  9743.63
   12558.4  1.16344e+06  20926.7  9857.89
   12563.6  1.16648e+06  21083.8  9956.68
   12568.7  1.17004e+06  21266.3  10063
   12573.5  1.17423e+06  21462.4  10175.8
   12578.7  1.17797e+06  21623  10287.2
   12583.9  1.18298e+06  21780.1  10380
   12589.1  1.18619e+06  21920.7  10479.4
   12594.2  1.19126e+06  22049.8  10568.3
   12599.4  1.19488e+06  22088.4  10617.7
   12605  1.19816e+06  22146.5  10678.7
   12610.2  1.20051e+06  22257.1  10767.1
   12615.4  1.20357e+06  22426.3  10874.1
   12620.6  1.21012e+06  22653.9  11018.6
   12625.8  1.21344e+06  22816.1  11123.6
   12631.3  1.21647e+06  22986.7  11237.1
   12636.6  1.2199e+06  23142.9  11341.2
   12642.1  1.22194e+06  23318.6  11457.8
   12647.4  1.22665e+06  23570.8  11616.9
   12652.9  1.22873e+06  23806.5  11766.5
   12658.2  1.23116e+06  24026.7  11897.6
   12663.8  1.23491e+06  24243.4  12033.3
   12669  1.23976e+06  24409.6  12140.5
   12674.6  1.2429e+06  24543.3  12244.1
   12680.2  1.24465e+06  24668.5  12334.4
   12685.8  1.24624e+06  24794.3  12428.1
   12691.1  1.25278e+06  24978.5  12551.3
   12696.7  1.25562e+06  25078.3  12638.1
   12702.3  1.25644e+06  25180.5  12726.4
   12708  1.25871e+06  25346.3  12846.2
   12713.6  1.26341e+06  25513.6  12972.5
   12719.3  1.26798e+06  25646.4  13077.4
   12724.9  1.26992e+06  25744.7  13161.7
   12730.6  1.27485e+06  25936.5  13294.6
   12736.2  1.27695e+06  26094.8  13413
   12741.9  1.27905e+06  26298.6  13550
   12747.9  1.28381e+06  26605.9  13754.4
   12753.6  1.28477e+06  26787.7  13886.4
   12759.2  1.28805e+06  26978.1  14031.9
   12764.9  1.29074e+06  27173.9  14178.9
   12771  1.29502e+06  27429.3  14343.4
   12776.7  1.29854e+06  27625.1  14481.4
   12782.4  1.29954e+06  27749.5  14592
   12788.4  1.30322e+06  27969.4  14750.1
   12794.1  1.30724e+06  28196.8  14912.7
   12800.2  1.30774e+06  28331.7  15020.8
   12806.3  1.31092e+06  28479.1  15156.4
   12812  1.31361e+06  28631  15263.6
   12818.1  1.3168e+06  28814.4  15406.3
   12824.2  1.31739e+06  28958.3  15530.5
   12829.9  1.32172e+06  29178.8  15684.2
   12836  1.32315e+06  29315.7  15809.4
   12842.1  1.32585e+06  29509.1  15962.2
   12848.2  1.33091e+06  29770.1  16131.4
   12854.4  1.33192e+06  29946.6  16283.2
   12860.5  1.33608e+06  30164.5  16442.5
   12866.3  1.33811e+06  30330  16576.4
   12872.4  1.34046e+06  30502  16725.7
   12878.6  1.34236e+06  30701.5  16870.6
   12885.1  1.34187e+06  30862.5  17014