File: data/as2o5_100K_scan2.xdi
# XDI/1.0
# Column.1: energy eV
# Column.2: i0
# Column.3: itrans
# Column.4: irefer
# Beamline.name: SSRL 2-3
# Beamline.notes: vert slits = 0.6mm
# Detector.I0: N2 15cm
# Detector.I1: Ar 30cm
# Detector.I2: Ar 15cm
# Element.edge: K
# Element.symbol: As
# Mono.d_spacing: 3.13550
# Mono.name: Si(111)
# Mono.notes: unfocused, detuned 75%, clockwise at E=12000eV
# Sample.formula: As2O5
# Sample.name: As2O5 arsenic (V) oxide
# Sample.prep: powder on tape (5 layers)
# Sample.reference: GaAs powder
# Sample.temperature: 100K
# Scan.start_time: 1997-04-19 21:41:34
# ///
#    Note: mono d_spacing is nominal!
#     exafs to K16, GaAs in IR
#     413  E XMU XMUR I0
#-------------
#   energy   i0   itrans  irefer
   11634.9  528022  93707.5  38137
   11644.9  525794  93674.5  38353
   11654.9  522927  93521.5  38516
   11665  520666  93454.5  38716
   11675.1  517401  93230.5  38854
   11684.9  515143  93143.5  39026
   11695  511643  92864.5  39151
   11705.1  509653  92833.5  39365
   11714.9  507374  92730.5  39548
   11725.1  504831  92632.5  39738
   11735  502147  92451.5  39878
   11744.9  499119  92221.5  40012
   11755.1  496472  92041.5  40166
   11765  494119  91929.5  40351
   11775  491888  91828.5  40544
   11784.9  490068  91793.5  40753
   11794.9  486878  91465.5  40823
   11804.9  484415  91282.5  40958
   11814.9  481735  91005.5  41058
   11824.9  479696  90795.5  41165
   11835  477294  90407.5  41172
   11845.1  474899  89706.5  40979
   11845.4  474630  89653.5  40950
   11846  474229  89536.5  40898
   11846.6  474381  89553.5  40906
   11846.9  474168  89484.5  40878
   11847.5  473198  89259.5  40778
   11848.1  473165  89224.5  40763
   11848.4  473664  89296.5  40789
   11849  472723  89069.5  40684
   11849.6  472180  88931.5  40613
   11849.9  472045  88865.5  40586
   11850.6  472671  88921.5  40615
   11850.9  471836  88727.5  40517
   11851.5  471569  88611.5  40460
   11852.1  471215  88489.5  40395
   11852.4  471948  88609.5  40439
   11853  472342  88560.5  40400
   11853.6  471756  88391.5  40303
   11853.9  471870  88349.5  40282
   11854.5  472380  88342.5  40256
   11855.1  471926  88134.5  40146
   11855.4  472022  88108.5  40112
   11856.1  471886  87939.5  40008
   11856.4  471956  87893.5  39964
   11857  471684  87675.5  39821
   11857.6  471293  87421.5  39652
   11857.9  471151  87310.5  39582
   11858.5  471872  87226.5  39465
   11859.1  471668  86943.5  39258
   11859.4  470629  86652.5  39089
   11860  470868  86405.5  38849
   11860.6  471063  86108.5  38561
   11861  471039  85967.5  38429
   11861.6  470251  85430.5  37973
   11861.9  470243  85220.5  37754
   11862.5  470089  84679.5  37157
   11863.1  470109  84120.5  36447
   11863.4  469383  83740.5  36032
   11864  468840  82906.5  34836
   11864.6  469045  82065.5  33285
   11864.9  468983  81588.5  32422
   11865.5  468340  80315.5  30209
   11865.9  468363  79793.5  29284
   11866.5  469054  78302.5  26744
   11867.1  469358  76348.5  24232
   11867.4  468716  75148.5  23091
   11868  468619  72293.5  20925
   11868.6  468503  68610.5  18992
   11868.9  468520  66884.5  18282
   11869.5  468270  61464.5  16443
   11870.1  467774  55040.5  14618
   11870.5  467984  51651.5  13712
   11871.1  467797  44009.5  11716
   11871.4  467345  40783.5  10879
   11872  466886  32459.5  8733.99
   11872.6  466999  24797.5  6743
   11872.9  466905  21674.5  5926
   11873.5  466471  16070.5  4453
   11874.1  466153  12519.5  3524
   11874.4  466824  11588.5  3287
   11875.1  467347  10721.5  3106
   11875.4  466830  10848.5  3172
   11876  466568  12051.5  3598
   11876.6  466951  14003.5  4250
   11876.9  466882  14932.5  4555
   11877.5  466469  17373.5  5362
   11878.1  466114  19934.5  6206
   11878.4  466410  21164.5  6615.01
   11879  466569  23571.5  7410
   11879.4  466044  24434.5  7701
   11880  465746  26488.5  8394
   11880.6  466248  28216.5  8973
   11880.9  465774  28852.5  9193
   11881.5  465371  29937.5  9564
   11882.1  465263  30678.5  9811
   11882.4  465081  30890.5  9877.99
   11883  465079  31266.5  10000
   11883.7  464316  31405.5  10039
   11884  463731  31433.5  10048
   11884.6  463700  31509.5  10072
   11884.9  463999  31553.5  10080
   11885.5  463149  31561.5  10090
   11886.1  463122  31632.5  10124
   11886.4  463625  31697.5  10148
   11887  463681  31812.5  10191
   11887.6  463534  31928.5  10240
   11888  463151  31972.5  10258
   11888.6  463226  32177.5  10319
   11888.9  463810  32323.5  10368
   11889.5  463646  32593.5  10450
   11890.1  462810  32875.5  10527
   11890.4  462978  33040.5  10579
   11891  463136  33446.5  10701
   11891.6  463001  33847.5  10834
   11892  462724  34029.5  10885
   11892.6  462096  34382.5  11012
   11892.9  462501  34577.5  11077
   11893.5  462460  34954.5  11218
   11894.1  461784  35267.5  11355
   11894.4  461720  35428.5  11423
   11895  462186  35790.5  11586
   11895.6  461894  36070.3  11708.8
   11896.3  461696  36304.5  11823
   11896.9  461687  36529.3  11923.8
   11897.5  461987  36763.6  12018.2
   11898.4  462082  37088.4  12118
   11899  461112  37287.6  12178.4
   11899.7  461471  37650.5  12275.2
   11900.6  462057  38316.7  12473.6
   11901.2  462258  38795.6  12619.5
   11902.1  461760  39485.9  12835
   11903  462307  40297.7  13105.9
   11903.7  462701  40808.1  13274.4
   11904.6  463182  41500.9  13523.4
   11905.5  463270  42152.3  13753.9
   11906.4  463605  42776.1  13969.9
   11907.4  464226  43402.5  14185.5
   11908.3  465015  43975.4  14392.5
   11909.2  464870  44409.8  14537.2
   11910.1  465408  44793.6  14662.3
   11911.1  466017  45058.1  14742.9
   11912.3  467470  45248.9  14787
   11913.2  468252  45190.4  14748.7
   11914.2  468701  44986.3  14667.9
   11915.4  468924  44531.7  14522.6
   11916.3  470005  44218.7  14440.8
   11917.6  470751  43626.1  14293.6
   11918.8  471348  42949.1  14143.8
   11919.7  471920  42439.5  14025.6
   11921  473726  41877.5  13901.9
   11922.2  475078  41378  13771.7
   11923.4  475356  40888  13631.1
   11924.7  475819  40510.5  13527.9
   11925.9  476871  40234.5  13442.3
   11927.1  478076  40008  13366.2
   11928.4  479836  39825  13299.7
   11929.6  480398  39522.5  13192.6
   11930.9  481502  39232.5  13081
   11932.4  483554  38902.1  12933
   11933.7  485084  38636.2  12799.5
   11934.9  486410  38412.7  12697.5
   11936.4  487383  38155.8  12570.1
   11938  488365  38011.3  12505.1
   11939.2  489654  37984.4  12493.7
   11940.8  490757  37938  12494.8
   11942.3  491327  37891.1  12500.4
   11943.6  493050  37991.7  12559.5
   11945.1  495761  38176.8  12647.2
   11946.7  498709  38390.4  12731.4
   11948.2  500652  38562.6  12815.1
   11949.8  502518  38745.2  12897.3
   11951.3  503728  38938.3  12983
   11952.9  505437  39196  13093.3
   11954.8  506398  39452.1  13214
   11956.3  508874  39821.8  13372.3
   11957.9  510788  40130  13511.1
   11959.7  512909  40489.7  13638.4
   11961.3  514881  40795.8  13737.3
   11963.2  516347  41061.5  13823.7
   11964.7  518652  41356.7  13914.6
   11966.6  520663  41635.4  14017
   11968.5  522529  41933.7  14170.9
   11970  524992  42279.4  14344.3
   11971.9  527195  42719.6  14588.3
   11973.8  529190  43207.4  14844.8
   11975.6  531299  43748.6  15098.8
   11977.5  532973  44281.4  15316.3
   11979.4  535445  44876.7  15538.3
   11981.3  538269  45456.4  15751.9
   11983.1  539910  45891.7  15912
   11985  540907  46199.5  16015.6
   11987.2  542268  46518.8  16093.7
   11989.1  546389  46989.6  16215.3
   11991.3  549442  47389.9  16293.5
   11993.2  551730  47708.7  16351.2
   11995.3  554011  48024.1  16398.4
   11997.2  555914  48272.9  16441.1
   11999.4  558910  48614.2  16532.3
   12001.3  561649  48897.1  16639.1
   12003.5  564404  49152.4  16758.3
   12005.7  567867  49445.3  16892.2
   12007.9  569105  49543.7  16970.5
   12010.1  570288  49626.6  17040.3
   12012.3  571724  49702  17117.6
   12014.5  575801  49979.8  17267.5
   12016.7  580874  50343.2  17438.9
   12018.9  583445  50516.2  17546.8
   12021.1  585624  50647.6  17648.2
   12023.6  588984  50862.5  17789.2
   12025.8  591848  50982  17885.7
   12028  595297  51110.9  17975.6
   12030.5  597885  51115.4  18027.2
   12032.7  601326  51214.3  18103.2
   12035.3  604222  51273.8  18167.7
   12037.8  607117  51371.8  18247.8
   12040  609731  51518.2  18331.4
   12042.5  612542  51758.2  18451.5
   12045  615902  52134.7  18631.1
   12047.6  618891  52544.7  18817.2
   12050.1  620751  52876.2  18971.9
   12052.6  623856  53293.2  19133.1
   12055.2  625133  53517.8  19200.8
   12057.7  628537  53868.8  19300
   12060.2  634715  54499.4  19522.8
   12062.8  637657  54862.4  19668
   12065.3  640759  55195  19824.8
   12068.1  644372  55605.1  20021.1
   12070.7  647371  55966.6  20154.9
   12073.2  651363  56436.7  20314.3
   12076.1  653612  56786.3  20416.1
   12078.6  658938  57359.4  20595.5
   12081.5  660694  57632  20662.4
   12084.3  664290  58055.1  20812.8
   12086.9  667038  58398.7  20939.7
   12089.7  672076  58959.9  21162.2
   12092.6  675098  59355.5  21364.2
   12095.5  678971  59842.7  21623.7
   12098.3  681156  60181.3  21824.7
   12101.2  684341  60611.5  22064.2
   12104.1  687770  61057.1  22289.2
   12107  691794  61574.3  22547.8
   12109.8  695153  62022  22781.9
   12112.7  698310  62466.2  23029.5
   12115.9  703212  63028.9  23335.7
   12118.8  706127  63393.1  23555.3
   12121.6  710935  63966.8  23847.5
   12124.9  713914  64386.1  24097.2
   12127.7  717944  64898.8  24356.4
   12130.9  722486  65478  24622.1
   12133.8  725612  65919.7  24814.3
   12137  728762  66334  24981.1
   12140.2  732731  66802.8  25163.4
   12143.4  737479  67339.1  25344.2
   12146.3  740910  67720.8  25502.5
   12149.6  744242  68079.1  25637.4
   12152.8  747383  68372.9  25767.7
   12156  752188  68759.2  25920.6
   12159.2  756013  69099  26068
   12162.4  760590  69541.3  26275.9
   12165.6  762900  69790.2  26421.4
   12169.2  767212  70205.5  26613.3
   12172.4  772298  70747.3  26883.8
   12175.6  775957  71240.7  27134.8
   12178.9  780842  71874.5  27417.3
   12182.4  784061  72388.9  27656.3
   12185.7  788328  72882.7  27872.9
   12189.2  792159  73333.1  28110
   12192.5  796208  73773  28334.6
   12196  800811  74262.4  28600.7
   12199.6  803661  74630.3  28813.3
   12202.8  808114  75191.7  29095.5
   12206.4  811241  75711.7  29357.2
   12210  816064  76434.1  29719.3
   12213.5  820336  77059  30056
   12217.1  823824  77513.5  30340.3
   12220.7  828167  77992.4  30628
   12224.3  832481  78428.9  30918.3
   12227.8  837420  78966.8  31210.1
   12231.4  841182  79510.2  31511.4
   12235  845711  80131.2  31830.2
   12238.9  849362  80671.7  32113.6
   12242.5  854242  81308.8  32444.5
   12246.1  857402  81812.3  32689.8
   12250  861792  82425.2  32962.7
   12253.6  866088  82966.8  33202.2
   12257.5  867525  83221.8  33322.1
   12261.2  873984  83976.3  33652.6
   12265.1  877157  84500.4  33916.6
   12269  879268  84915.9  34134.1
   12272.6  886641  85783.9  34545.1
   12276.6  891234  86394.5  34823.6
   12280.5  895279  87017.6  35149.7
   12284.4  900185  87763.2  35517.3
   12288.4  904455  88443.3  35881.4
   12292.3  909115  89111.8  36242
   12296.3  912516  89653.9  36562.1
   12300.2  917072  90311.5  36933.8
   12304.2  921480  90925.7  37271
   12308.2  925011  91421.3  37579.6
   12312.1  929565  91987.5  37892.9
   12316.1  933641  92483.1  38202.6
   12320.4  937265  92992.3  38521.9
   12324.3  939987  93414.9  38790.6
   12328.7  947001  94320  39276.9
   12332.6  950748  94871.7  39612.7
   12336.6  954479  95396.9  39945.1
   12340.9  959440  96112.6  40346.9
   12345.2  963623  96723.8  40727.3
   12349.2  965839  97107.5  40971.2
   12353.5  971393  97854.7  41362.6
   12357.9  975530  98477.5  41717.5
   12362.2  980034  99150.7  42090
   12366.2  983945  99687.4  42402.9
   12370.5  988339  100352  42797.4
   12374.9  992635  101038  43202.4
   12379.2  996898  101705  43558
   12383.5  1.00041e+06  102263  43875
   12387.9  1.00505e+06  102894  44221.6
   12392.6  1.00739e+06  103344  44502.7
   12396.9  1.01311e+06  104111  44915.3
   12401.3  1.01736e+06  104743  45263.4
   12405.6  1.02235e+06  105465  45677.1
   12410.3  1.02523e+06  105991  45998.2
   12414.7  1.02993e+06  106741  46404.9
   12419  1.03467e+06  107527  46852.1
   12423.8  1.03871e+06  108296  47317.8
   12428.1  1.04333e+06  109070  47771
   12432.8  1.04477e+06  109451  48076.8
   12437.6  1.04925e+06  110133  48517.1
   12441.9  1.05448e+06  110886  48975.9
   12446.7  1.05791e+06  111450  49371.2
   12451.4  1.06046e+06  111894  49718.1
   12456.1  1.06736e+06  112798  50256.4
   12460.5  1.06955e+06  113236  50580.3
   12465.3  1.07263e+06  113863  50978.7
   12470  1.07691e+06  114603  51462.6
   12474.7  1.08261e+06  115523  52007
   12479.5  1.08616e+06  116187  52452
   12484.2  1.09016e+06  116899  52899.5
   12489  1.09462e+06  117696  53389.4
   12494.1  1.0984e+06  118448  53860
   12498.9  1.09995e+06  118896  54167
   12503.6  1.10307e+06  119506  54552.5
   12508.4  1.10788e+06  120293  55049.6
   12513.5  1.10964e+06  120790  55414.2
   12518.3  1.11534e+06  121651  55941.3
   12523.4  1.11944e+06  122329  56398.9
   12528.2  1.12177e+06  122841  56757.1
   12533.4  1.12539e+06  123494  57205.8
   12538.1  1.12951e+06  124231  57680
   12543.3  1.13546e+06  125161  58251.6
   12548.1  1.13978e+06  125895  58718.9
   12553.2  1.14296e+06  126532  59179.6
   12558.4  1.1454e+06  127143  59588.9
   12563.6  1.14834e+06  127768  60045.7
   12568.7  1.15358e+06  128663  60613
   12573.5  1.15637e+06  129227  61029.8
   12578.7  1.16039e+06  129968  61556.2
   12583.9  1.16336e+06  130626  62042
   12589.1  1.16795e+06  131436  62591.4
   12594.2  1.17078e+06  132043  63038.3
   12599.4  1.17439e+06  132709  63561.7
   12605  1.17783e+06  133392  64069.7
   12610.2  1.18176e+06  134146  64607.1
   12615.4  1.18432e+06  134720  65072.1
   12620.6  1.19052e+06  135787  65770.6
   12625.8  1.19385e+06  136504  66289.6
   12631.3  1.19704e+06  137273  66851.2
   12636.6  1.20065e+06  138087  67420.2
   12642.1  1.20293e+06  138734  67925.8
   12647.4  1.20676e+06  139496  68460.9
   12652.9  1.20937e+06  140130  68955.5
   12658.2  1.21148e+06  140657  69388.6
   12663.8  1.21554e+06  141435  69948.3
   12669  1.2213e+06  142417  70599.5
   12674.6  1.22207e+06  142840  70992.1
   12680.2  1.22613e+06  143659  71595.4
   12685.8  1.22739e+06  144161  72024.1
   12691.1  1.23203e+06  145064  72665.3
   12696.7  1.23601e+06  145869  73266.1
   12702.3  1.23739e+06  146411  73728.4
   12708  1.24021e+06  147111  74294.2
   12713.6  1.24471e+06  148061  74962.6
   12719.3  1.25079e+06  149142  75730.4
   12724.9  1.25158e+06  149644  76202.7
   12730.6  1.25517e+06  150472  76834.6
   12736.2  1.25716e+06  151113  77368.1
   12741.9  1.26212e+06  152113  78093
   12747.9  1.26496e+06  152871  78721.4
   12753.6  1.26623e+06  153411  79228.4
   12759.2  1.26915e+06  154120  79814.9
   12764.9  1.27085e+06  154687  80327.9
   12771  1.27348e+06  155404  80943.4
   12776.7  1.27801e+06  156280  81622.4
   12782.4  1.2817e+06  157096  82263
   12788.4  1.28501e+06  157937  82950.1
   12794.1  1.28684e+06  158554  83497.7
   12800.2  1.29034e+06  159324  84148.8
   12806.3  1.29349e+06  160104  84811.5
   12812  1.29508e+06  160714  85356.6
   12818.1  1.29842e+06  161548  86058.3
   12824.2  1.2987e+06  162017  86526.4
   12829.9  1.30395e+06  163037  87312.1
   12836  1.30483e+06  163546  87844.4
   12842.1  1.3075e+06  164300  88476.2
   12848.2  1.31269e+06  165321  89258.4
   12854.4  1.31388e+06  165902  89816.2
   12860.5  1.31477e+06  166428  90364.5
   12866.3  1.31657e+06  167082  90955.4
   12872.4  1.31923e+06  167895  91661.7
   12878.6  1.32472e+06  169030  92536.6
   12885.1  1.32558e+06  169632  93149