File: data/as2o3_roomt_scan3.xdi
# XDI/1.0
# Column.1: energy eV
# Column.2: i0
# Column.3: itrans
# Column.4: irefer
# Beamline.name: SSRL 4-1
# Detector.I0: N2 15cm
# Detector.I1: N2 30cm
# Detector.I2: Ar 15cm
# Element.edge: K
# Element.symbol: As
# Mono.d_spacing: 3.13550
# Mono.name: Si(111)
# Mono.notes: unfocused, detuned 40%,counter clockwise at E=12000eV
# Sample.formula: As2O3
# Sample.name: As2O3 arsenious oxide
# Sample.prep: powder, mixed 1:60 with B(OH)3 by wt
# Sample.reference: GaAs powder
# Sample.temperature: room temperature
# Scan.start_time: 1997-01-19 14:12:16
# ///
#    Note: mono d_spacing is nominal!
#     exafs to K15, GaAs in IR
#     320  E XMU XMUR I0
#-------------
#   energy   i0   itrans  irefer
   11650  176131  276780  321037
   11660  176245  277636  322909
   11670  175938  277867  324041
   11680  175406  277719  324757
   11690  174944  277666  325579
   11700  175022  278486  327395
   11710  174176  277839  327511
   11720  173644  277690  328200
   11730  173516  278138  329623
   11740  172649  277451  329665
   11750  172062  277174  330206
   11760  171655  277194  331095
   11770  170650  276190  330783
   11780  170713  276928  332549
   11790  169596  275770  331974
   11800  169555  276298  333444
   11810  169402  276625  334623
   11820  169296  276906  335739
   11830  168578  276067  335365
   11840  167199  273857  333050
   11850  167686  273764  332544
   11850.8  166923  272323  330684
   11851.5  166888  272053  330225
   11852.3  167533  272912  331145
   11853  167434  272522  330478
   11853.8  167514  272328  330059
   11854.5  166082  269675  326592
   11855.3  166553  270094  326790
   11856.1  165998  268698  324745
   11856.8  166510  269030  324726
   11857.6  166070  267773  322733
   11858.3  166226  267288  321487
   11859.1  166532  266860  320157
   11859.9  166016  265062  317047
   11860.6  166249  264079  314495
   11861.4  165821  261726  309865
   11862.1  165954  260038  305669
   11862.9  165964  257471  299209
   11863.6  165354  252617  287780
   11864.4  165947  248840  275712
   11865.2  165623  241175  256164
   11865.9  166130  231142  232008
   11866.7  166613  217426  205964
   11867.4  166672  199130  177206
   11868.2  166602  175965  145458
   11868.9  166620  153962  118912
   11869.7  165893  137155  101873
   11870.5  165912  124613  91386.9
   11871.2  166452  119295  87946
   11872  165831  120379  89395.9
   11872.7  166265  128274  96130
   11873.5  166655  139883  106113
   11874.2  166017  148929  114543
   11875  165583  156656  122384
   11875.8  165096  163319  129721
   11876.5  164833  168335  135617
   11877.3  165981  173206  141378
   11878  166135  175163  144860
   11878.8  166680  175321  146535
   11879.5  166044  172960  145681
   11880.3  164780  169213  143446
   11881.1  165717  167979  143096
   11881.8  165077  166126  141925
   11882.6  164778  165588  141757
   11883.3  165481  167291  143282
   11884.1  165485  168777  144501
   11884.8  166084  171039  146395
   11885.6  165305  171894  147166
   11886.4  165861  173832  148890
   11887.1  165287  174536  149603
   11887.9  165976  176777  151585
   11888.6  164439  176647  151466
   11889.4  165455  179219  153605
   11890.1  165241  180703  154753
   11890.9  165338  182516  156211
   11891.7  165119  183663  157146
   11892.4  165114  185145  158448
   11893.2  165602  187129  160341
   11893.9  164984  187472  160938
   11894.7  164646  187926  161787
   11895.5  164272  188027  162403
   11896.2  164940  189024  163751
   11897  165445  189738  164727
   11897.7  164926  189291  164593
   11898.5  164310  188792  164181
   11899.2  164499  189232  164449
   11900  165557  190706  165542
   11901.3  165409  191083  165544
   11902.6  164515  190746  165062
   11903.9  164652  191564  165806
   11905.2  165160  192738  167026
   11906.6  164153  191936  166523
   11908  166487  194797  169187
   11909.4  165259  193027  167710
   11910.8  164437  191188  166022
   11912.2  165457  191271  165885
   11913.6  165302  189886  164375
   11915.1  165026  188512  163019
   11916.6  166026  189000  163559
   11918.1  165544  187904  163172
   11919.6  165615  187555  163624
   11921.2  164715  185961  162932
   11922.7  165959  186500  163962
   11924.3  166418  186028  163850
   11925.9  166829  185499  163550
   11927.6  166759  184599  162823
   11929.2  166600  183884  162112
   11930.9  167398  184360  162276
   11932.5  166272  182786  160417
   11934.2  167914  184347  161226
   11936  168043  184415  160636
   11937.7  168224  184567  160211
   11939.4  168850  185129  160415
   11941.2  169013  185080  160382
   11943  169252  185140  160657
   11944.8  170531  186470  162126
   11946.7  169886  185993  161963
   11948.5  171168  187909  163888
   11950.4  171124  188619  164780
   11952.3  171688  190002  166194
   11954.2  172288  191244  167560
   11956.1  173130  192675  169161
   11958.1  174374  194550  171237
   11960  173237  193785  170812
   11962  173607  194716  171582
   11964  175066  196828  173278
   11966  175350  197524  173778
   11968.1  174776  197291  173703
   11970.2  176261  199358  176085
   11972.2  177347  200965  178408
   11974.3  178499  202627  180966
   11976.5  178525  203010  182160
   11978.6  179654  204760  184240
   11980.8  180381  206129  185666
   11982.9  180903  207279  186786
   11985.1  181886  208918  188207
   11987.3  182429  209932  188822
   11989.6  182746  210602  188859
   11991.8  183753  211962  189376
   11994.1  184095  212503  189058
   11996.4  185411  214097  189635
   11998.7  185364  213974  188788
   12001  187287  216028  190229
   12003.4  189198  217957  191948
   12005.8  188809  217174  191537
   12008.1  189248  217278  192052
   12010.6  190029  217835  192894
   12013  191308  219018  194376
   12015.4  192254  219875  195673
   12017.9  193670  221318  197479
   12020.4  195045  222788  199219
   12022.9  194436  221957  199030
   12025.4  195845  223490  200993
   12027.9  197002  224785  202700
   12030.5  196998  224745  203136
   12033.1  199196  227290  205858
   12035.7  199797  228140  206998
   12038.3  201331  230161  209192
   12040.9  202760  232126  211356
   12043.6  203277  233158  212602
   12046.3  203928  234298  213968
   12049  205683  236769  216594
   12051.7  207358  239173  219047
   12054.4  209446  242059  221619
   12057.2  209334  242339  221517
   12059.9  210257  243786  222416
   12062.7  211784  245786  224175
   12065.5  213421  247908  226304
   12068.4  215141  250079  228604
   12071.2  215282  250397  229019
   12074.1  216677  252292  230509
   12077  217112  253106  230842
   12079.9  218994  255650  232682
   12082.8  219487  256586  233141
   12085.7  221514  259314  235348
   12088.7  224355  262971  238536
   12091.7  224726  263731  239365
   12094.7  225031  264329  240486
   12097.7  225849  265522  242278
   12100.8  228223  268561  245799
   12103.8  228535  269298  247183
   12106.9  231122  272707  250909
   12110  232364  274573  253223
   12113.1  232859  275586  254852
   12116.2  234840  278303  258202
   12119.4  235333  279213  259865
   12122.6  237581  282157  263363
   12125.7  239486  284666  266442
   12129  240570  286117  268415
   12132.2  241946  287891  270440
   12135.4  243886  290256  272805
   12138.7  244988  291567  273971
   12142  246325  293072  275105
   12145.3  248111  295122  276747
   12148.6  248849  295925  277249
   12152  251497  299012  280012
   12155.4  252549  300316  281106
   12158.7  254338  302577  283225
   12162.1  255289  303995  284682
   12165.6  257892  307509  288175
   12169  258769  309035  289906
   12172.5  261622  313014  293983
   12175.9  261644  313693  295005
   12179.4  264508  317738  299139
   12183  266836  321222  302556
   12186.5  267594  322742  304136
   12190  268532  324411  306064
   12193.6  270733  327605  309574
   12197.2  273021  330772  313125
   12200.8  274568  333046  315713
   12204.5  275571  334560  317633
   12208.1  276405  335813  319374
   12211.8  279640  340021  324016
   12215.5  280218  340925  325665
   12219.2  282850  344310  329811
   12222.9  283497  345345  331654
   12226.7  284498  346809  333852
   12230.4  287475  350798  338319
   12234.2  288681  352660  340642
   12238  291094  356079  344494
   12241.9  292389  358186  347001
   12245.7  295302  362348  351347
   12249.6  296985  365089  353988
   12253.4  298867  368054  356713
   12257.3  300642  370894  359314
   12261.3  302226  373526  361851
   12265.2  304008  376310  364728
   12269.2  306393  379804  368388
   12273.1  308642  383034  371753
   12277.1  310132  385298  374211
   12281.1  313397  389662  378762
   12285.2  314663  391549  381023
   12289.2  315865  393278  383245
   12293.3  318469  396723  387307
   12297.4  319591  398322  389507
   12301.5  320437  399588  391417
   12305.6  323256  403338  395751
   12309.8  325934  406980  399957
   12314  326728  408324  401939
   12318.2  330018  412877  407072
   12322.4  332365  416292  411170
   12326.6  333476  418284  413847
   12330.8  334239  419843  416161
   12335.1  336629  423573  420619
   12339.4  339428  427816  425592
   12343.7  340242  429578  428072
   12348  343402  434317  433377
   12352.4  345667  437837  437579
   12356.7  346779  439647  440134
   12361.1  351185  446323  446814
   12365.5  352407  448543  449037
   12369.9  352839  449719  451216
   12374.3  355943  454115  456331
   12378.8  356624  455471  458138
   12383.3  359888  460154  463169
   12387.8  361502  462639  466069
   12392.3  362641  464570  468404
   12396.8  364871  467868  472206
   12401.4  366648  470659  475458
   12405.9  369191  474467  479835
   12410.5  371342  477886  483817
   12415.1  374350  482344  489000
   12419.8  377478  487122  494511
   12424.4  378834  489631  497788
   12429.1  381390  493724  502733
   12433.8  381979  495299  505141
   12438.5  384103  498803  509609
   12443.2  384788  500491  512260
   12447.9  389434  507312  520260
   12452.7  391388  510642  524538
   12457.5  395012  515985  530929
   12462.3  395841  517713  533562
   12467.1  397514  520555  537357
   12471.9  398015  521743  539504
   12476.8  400635  525725  544451
   12481.7  404503  531295  550993
   12486.6  405027  532512  552973
   12491.5  407548  536397  557664
   12496.4  408580  538304  560355
   12501.4  411478  542718  565621
   12506.4  412956  545323  569018
   12511.3  416309  550478  575089
   12516.4  418916  554693  580246
   12521.4  419288  556003  582441
   12526.4  421754  560101  587508
   12531.5  424772  565026  593382
   12536.6  427627  569771  599148
   12541.7  429675  573392  603713
   12546.8  432672  578318  609739
   12552  433831  580792  613178
   12557.1  437840  587043  620648
   12562.3  438528  588814  623459
   12567.5  441088  593095  628911
   12572.8  441838  594921  631792
   12578  445995  601307  639550
   12583.3  447043  603459  642862
   12588.5  449175  607116  647832
   12593.8  450467  609626  651579
   12599.2  453066  613899  657359
   12604.5  455828  618460  663317
   12609.9  457521  621597  667849
   12615.2  462984  629891  677892
   12620.6  463777  631823  681052
   12626  465417  635001  685526
   12631.5  466297  637157  688914
   12636.9  469632  642714  695950
   12642.4  471309  646000  700498
   12647.9  473983  650658  706516
   12653.4  474741  652688  709717
   12658.9  477419  657347  715765
   12664.5  480820  663039  722907
   12670  481844  665375  726474
   12675.6  484119  669473  731971
   12681.2  488514  676493  740691
   12686.8  489792  679149  744681
   12692.5  491441  682320  749245
   12698.1  493613  686171  754678
   12703.8  496418  691064  761110
   12709.5  497712  693700  765230
   12715.2  501126  699368  772687