File: data/as2s3_100K_scan1.xdi
# XDI/1.0
# Column.1: energy eV
# Column.2: i0
# Column.3: itrans
# Column.4: irefer
# Beamline.name: SSRL 2-3
# Beamline.notes: vert slits = 0.6mm
# Detector.I0: N2 15cm
# Detector.I1: Ar 30cm
# Detector.I2: Ar 15cm
# Element.edge: K
# Element.symbol: As
# Mono.d_spacing: 3.13550
# Mono.name: Si(111)
# Mono.notes: unfocused, detuned 75%, clockwise at E=12000eV
# Sample.formula: As2S3
# Sample.name: As2S3 arsenious sulfide (orpiment)
# Sample.prep: powder on tape (5 layers)
# Sample.reference: GaAs powder
# Sample.temperature: 100K
# Scan.start_time: 1997-04-19 22:41:20
# ///
#    Note: mono d_spacing is nominal!
#     exafs to K16, GaAs in IR
#     413  E XMU XMUR I0
#-------------
#   energy   i0   itrans  irefer
   11634.9  522870  93227.5  38014
   11644.9  520022  93078.5  38184
   11654.9  517087  92891.5  38342
   11665  514413  92754.5  38506
   11675.1  511248  92509.5  38641
   11684.9  509124  92488.5  38845
   11695  505740  92195.5  38949
   11705.1  504044  92230.5  39195
   11714.9  501165  92042.5  39350
   11725.1  498930  91944.5  39528
   11735  495964  91748.5  39675
   11744.9  493754  91655.5  39861
   11755.1  491079  91479.5  40005
   11765  488894  91390.5  40199
   11775  485957  91147.5  40323
   11784.9  483473  90981.5  40473
   11794.9  481202  90882.5  40654
   11804.9  479443  90817.5  40840
   11814.9  476319  90484.5  40911
   11824.9  473851  90228.5  40998
   11835  470819  89772.5  40971
   11845.1  469059  89287.5  40864
   11845.4  469058  89266.5  40859
   11846  468787  89195.5  40827
   11846.6  468326  89092.5  40786
   11846.9  468461  89075.5  40774
   11847.5  468537  89070.5  40777
   11848.1  468104  88948.5  40703
   11848.4  467149  88745.5  40626
   11849  467466  88765.5  40626
   11849.6  467496  88730.5  40609
   11849.9  466888  88579.5  40542
   11850.6  466471  88435.5  40464
   11850.9  466781  88469.5  40480
   11851.5  467166  88452.5  40463
   11852.1  466826  88314.5  40395
   11852.4  466679  88249.5  40353
   11853  466889  88193.5  40304
   11853.6  466822  88075.5  40241
   11853.9  466752  87982.5  40189
   11854.5  466733  87841.5  40104
   11855.1  466465  87636.5  39987
   11855.4  466608  87589.5  39956
   11856.1  466623  87381.5  39820
   11856.4  466260  87208.5  39728
   11857  466169  86937.5  39555
   11857.6  466616  86730.5  39412
   11857.9  466119  86511.5  39285
   11858.5  466198  86109.5  39027
   11859.1  465953  85636.5  38726
   11859.4  465797  85368.5  38564
   11860  465504  84691.5  38123
   11860.6  464971  83845.5  37601
   11861  464920  83443.5  37343
   11861.6  464828  82319.5  36619
   11861.9  464873  81686.5  36218
   11862.5  463841  79824.5  35063
   11863.1  463834  77520.5  33599
   11863.4  463930  76344.5  32864
   11864  463785  72635.5  30612
   11864.6  462820  67380.5  27597
   11864.9  462777  64350.5  25923
   11865.5  463230  56853.5  21967
   11865.9  462876  53591.5  20331
   11866.5  463104  44704.5  16050
   11867.1  463154  36248.5  12192
   11867.4  463320  32765.5  10648
   11868  463106  27204.5  8191.01
   11868.6  463049  24675.5  6950
   11868.9  462800  24511.5  6771
   11869.5  462780  26090.5  7008
   11870.1  462367  29717.5  7941
   11870.5  462044  31808.5  8520
   11871.1  461642  36508.5  9855
   11871.4  461640  38293.5  10372
   11872  461039  42411.5  11609
   11872.6  460963  45391.5  12547
   11872.9  460637  46331.5  12875
   11873.5  461051  47555.5  13365
   11874.1  461024  47717.5  13574
   11874.4  460983  47576.5  13610
   11875.1  461014  47018.5  13661
   11875.4  461259  46739.5  13689
   11876  461323  46181.5  13768
   11876.6  461052  45823.5  13898
   11876.9  460476  45708.5  13948
   11877.5  461063  45790.5  14163
   11878.1  460749  45956.5  14363
   11878.4  460710  46073.5  14456
   11879  460448  46324.5  14630
   11879.4  460786  46494.5  14718
   11880  460869  46772.5  14876
   11880.6  460341  46974.5  15002
   11880.9  460302  47094.5  15067
   11881.5  460623  47336.5  15171
   11882.1  460215  47491.5  15234
   11882.4  459579  47515.5  15246
   11883  459504  47683.5  15297
   11883.7  459316  47829.5  15336
   11884  459106  47883.5  15348
   11884.6  458354  47945.5  15373
   11884.9  457902  47963.5  15380
   11885.5  458572  48158.5  15450
   11886.1  457999  48223.5  15488
   11886.4  457583  48242.5  15501
   11887  457929  48406.5  15563
   11887.6  458748  48636.5  15650
   11888  458372  48650.5  15657
   11888.6  458113  48795.5  15695
   11888.9  458307  48888.5  15727
   11889.5  458381  49081.5  15780
   11890.1  458161  49243.5  15815
   11890.4  457770  49262.5  15825
   11891  457765  49459.5  15874
   11891.6  457781  49643.5  15925
   11892  457587  49722.5  15959
   11892.6  457374  49894.5  16030
   11892.9  456879  49917.5  16046
   11893.5  457225  50145.5  16153
   11894.1  456789  50285.5  16243
   11894.4  456663  50365.5  16301
   11895  456703  50553.5  16418
   11895.6  456837  50740.3  16540.8
   11896.3  456653  50890.5  16636
   11896.9  456443  51036.3  16713.8
   11897.5  456399  51195.5  16780.1
   11898.4  456463  51417.3  16848
   11899  456623  51559.6  16879.4
   11899.7  456571  51671.4  16891.2
   11900.6  456798  51841.8  16920.6
   11901.2  457059  51946.6  16934.5
   11902.1  457438  52073.9  16978
   11903  457649  52157.7  17009.9
   11903.7  457528  52159.1  17015.4
   11904.6  458226  52241.9  17068.4
   11905.5  458228  52207.3  17077.9
   11906.4  458717  52188.1  17092.9
   11907.4  459105  52137.5  17104.5
   11908.3  459829  52116.4  17107.6
   11909.2  460512  52027.8  17079.2
   11910.1  460684  51864.6  17022.2
   11911.1  461052  51709.1  16963.9
   11912.3  461923  51479.9  16865
   11913.2  462850  51348.4  16803.7
   11914.2  463491  51157.3  16724.9
   11915.4  463832  50842.7  16631.6
   11916.3  464541  50675.7  16601.8
   11917.6  465188  50443.1  16588.6
   11918.8  466273  50276.1  16610.8
   11919.7  466796  50142.5  16630.6
   11921  467726  50036.5  16658.9
   11922.2  469003  50008  16690.7
   11923.4  469923  49962  16705.1
   11924.7  470656  49952.4  16729.9
   11925.9  471383  49974.5  16740.3
   11927.1  472492  50088  16793.2
   11928.4  473665  50222  16831.7
   11929.6  475378  50433.5  16882.6
   11930.9  476260  50585.6  16902
   11932.4  477235  50826.1  16940
   11933.7  479014  51149.1  17001.5
   11934.9  480452  51484.7  17065.5
   11936.4  481791  51891.7  17143.1
   11938  482800  52253.3  17240.1
   11939.2  483669  52572.4  17339.7
   11940.8  484540  52989  17501.8
   11942.3  484989  53359.1  17663.4
   11943.6  486493  53784.7  17834.5
   11945.1  489881  54471.8  18097.2
   11946.7  492366  55034.4  18315.4
   11948.2  493875  55489.6  18500.1
   11949.8  495824  55927.2  18680.3
   11951.3  497558  56334.3  18844
   11952.9  499126  56663  18985.3
   11954.8  500470  56956.1  19143
   11956.3  502344  57233.8  19292.3
   11957.9  504168  57475  19408.1
   11959.7  506653  57763.6  19519.5
   11961.3  508089  57913.8  19571.3
   11963.2  509809  58058.6  19603.7
   11964.7  512086  58255.8  19666.6
   11966.6  514041  58388.5  19737
   11968.5  515776  58478.7  19828.9
   11970  518475  58690.4  19987.3
   11971.9  520515  58791.7  20148.3
   11973.8  522664  58905.4  20309.8
   11975.6  524426  58976.6  20418.8
   11977.5  526195  59052.4  20502.3
   11979.4  528849  59216.6  20580.3
   11981.3  530344  59254.4  20615.9
   11983.1  532694  59397.7  20668
   11985  534383  59474.5  20684.6
   11987.2  535747  59515.8  20654.7
   11989.1  539296  59842.6  20721.3
   11991.3  543348  60227.9  20777.5
   11993.2  545284  60433.8  20779.2
   11995.3  547464  60694  20779.4
   11997.2  549599  60989.9  20834.1
   11999.4  551797  61342.3  20929.3
   12001.3  554919  61825.1  21091.1
   12003.5  557570  62314.4  21309.3
   12005.7  560398  62885.3  21552.1
   12007.9  562763  63406.7  21782.5
   12010.1  564848  63939.5  22022.3
   12012.3  566935  64481.9  22277.6
   12014.5  569731  65106.8  22565.5
   12016.7  573741  65868.3  22893.9
   12018.9  576417  66432.2  23148.8
   12021.1  578368  66910.6  23387.3
   12023.6  582234  67575.5  23706.2
   12025.8  585381  68102  23962.7
   12028  587370  68417.9  24132.6
   12030.5  590413  68849.4  24359.2
   12032.7  593958  69321.3  24572.2
   12035.3  597005  69691.8  24768.7
   12037.8  599062  69943.8  24922.8
   12040  602028  70303.2  25113.4
   12042.5  605734  70704.2  25293.5
   12045  609049  71050.7  25478.1
   12047.6  610859  71226.7  25598.2
   12050.1  613757  71507.2  25742.9
   12052.6  617364  71884.3  25889.1
   12055.2  618891  72005.8  25904.8
   12057.7  621539  72275.9  25971
   12060.2  627710  72956.4  26209.8
   12062.8  630089  73215.5  26336
   12065.3  634109  73671  26555.8
   12068.1  637920  74105.1  26762.1
   12070.7  639854  74343.6  26868.9
   12073.2  644334  74892.7  27046.3
   12076.1  646282  75178.3  27108.1
   12078.6  650894  75791.4  27304.5
   12081.5  653868  76246  27440.4
   12084.3  657050  76753.2  27611.8
   12086.9  660391  77272.7  27801.7
   12089.7  665108  77996.9  28082.2
   12092.6  668034  78507.5  28356.2
   12095.5  671053  79076.7  28675.7
   12098.3  673358  79546.3  28944.7
   12101.2  675378  79997.5  29221.2
   12104.1  680583  80829.1  29613.2
   12107  684134  81496.3  29928.8
   12109.8  687459  82106  30263.9
   12112.7  689296  82544.2  30535.5
   12115.9  695270  83499.9  31019.7
   12118.8  698075  84030.1  31325.3
   12121.6  702700  84742.8  31704.5
   12124.9  704953  85200  31990.2
   12127.7  708519  85773.8  32301.4
   12130.9  713324  86476  32637.1
   12133.8  717686  87096.8  32908.3
   12137  719386  87401  33045.1
   12140.2  725318  88184.8  33321.4
   12143.4  728544  88632  33489.2
   12146.3  732130  89102.8  33660.5
   12149.6  735635  89581.1  33848.4
   12152.8  740303  90158.9  34083.7
   12156  744023  90653.2  34282.6
   12159.2  746178  90927  34425
   12162.4  751421  91604.3  34715.9
   12165.6  753779  91934.1  34901.3
   12169.2  758902  92650.5  35235.3
   12172.4  762412  93170.3  35509.8
   12175.6  766932  93797.7  35833.8
   12178.9  771291  94455.5  36134.3
   12182.4  774245  94974.9  36382.4
   12185.7  778890  95698.8  36696.9
   12189.2  781991  96263.2  36993
   12192.5  786213  96955  37347.6
   12196  790583  97691.4  37728.7
   12199.6  793220  98264.3  38046.3
   12202.8  798913  99170.7  38472.5
   12206.4  802345  99829.6  38822.1
   12210  805421  100458  39169.4
   12213.5  811414  101427  39675.1
   12217.1  814040  102013  40036.3
   12220.7  818660  102810  40503.1
   12224.3  823340  103609  40958.3
   12227.8  827858  104382  41372.1
   12231.4  831772  105092  41759.4
   12235  836224  105859  42160.2
   12238.9  840103  106559  42552.6
   12242.5  844031  107235  42915.5
   12246.1  847708  107864  43230.8
   12250  851804  108576  43564.7
   12253.6  855371  109198  43813.2
   12257.5  858572  109770  44075.1
   12261.2  863401  110538  44421.6
   12265.1  867905  111269  44771.6
   12269  869477  111617  44994.1
   12272.6  875564  112513  45419.1
   12276.6  880850  113351  45825.6
   12280.5  884331  113908  46125.7
   12284.4  888552  114626  46503.3
   12288.4  892352  115247  46866.4
   12292.3  896099  115892  47260
   12296.3  898778  116414  47597.1
   12300.2  905841  117496  48160.8
   12304.2  909978  118208  48579
   12308.2  912567  118767  48916.7
   12312.1  917248  119573  49383.8
   12316.1  922437  120491  49889.6
   12320.4  926116  121210  50338.9
   12324.3  931011  122091  50822.6
   12328.7  934528  122815  51266.9
   12332.6  939282  123690  51757.7
   12336.6  942674  124418  52207.1
   12340.9  948294  125415  52788.9
   12345.2  951250  126105  53202.3
   12349.2  956178  127030  53707.2
   12353.5  960927  127937  54205.6
   12357.9  964605  128702  54649.5
   12362.2  967728  129398  55067
   12366.2  972575  130279  55551.9
   12370.5  976304  131055  56020.5
   12374.9  981452  132005  56551.5
   12379.2  985173  132790  57013
   12383.5  988738  133489  57406
   12387.9  995185  134583  57963.6
   12392.6  995395  134855  58210.7
   12396.9  1.0015e+06  135916  58777.3
   12401.3  1.00557e+06  136683  59213.4
   12405.6  1.00905e+06  137363  59632
   12410.3  1.01443e+06  138369  60201.2
   12414.7  1.01743e+06  138979  60589.9
   12419  1.02148e+06  139757  61070.1
   12423.8  1.02658e+06  140711  61643.8
   12428.1  1.02784e+06  141099  61966
   12432.8  1.03119e+06  141800  62444.8
   12437.6  1.03593e+06  142727  63035.1
   12441.9  1.04177e+06  143799  63676.9
   12446.7  1.04555e+06  144582  64204.2
   12451.4  1.05026e+06  145542  64828
   12456.1  1.0529e+06  146205  65308.4
   12460.5  1.05646e+06  146954  65800.3
   12465.3  1.05983e+06  147739  66342.7
   12470  1.06708e+06  149071  67109.6
   12474.7  1.07074e+06  149889  67674
   12479.5  1.07396e+06  150673  68189
   12484.2  1.07707e+06  151432  68704.4
   12489  1.08052e+06  152245  69229.5
   12494.1  1.08417e+06  153098  69793
   12498.9  1.08695e+06  153825  70273
   12503.6  1.09028e+06  154638  70807.5
   12508.4  1.09425e+06  155516  71368.6
   12513.5  1.09653e+06  156174  71836.2
   12518.3  1.10134e+06  157195  72483.3
   12523.4  1.10616e+06  158237  73128.9
   12528.2  1.10906e+06  158945  73653.1
   12533.4  1.11363e+06  159965  74291.7
   12538.1  1.11873e+06  161017  74941
   12543.3  1.12078e+06  161643  75405.7
   12548.1  1.12647e+06  162743  76108.9
   12553.2  1.12925e+06  163511  76664.6
   12558.4  1.13132e+06  164109  77128.9
   12563.6  1.13421e+06  164870  77684.7
   12568.7  1.13868e+06  165843  78360
   12573.5  1.1428e+06  166734  78971.8
   12578.7  1.14655e+06  167641  79607.1
   12583.9  1.14941e+06  168386  80185
   12589.1  1.15314e+06  169276  80827.4
   12594.2  1.15556e+06  169968  81385.3
   12599.4  1.16021e+06  170984  82117.8
   12605  1.1643e+06  171953  82800.6
   12610.2  1.16704e+06  172728  83401.1
   12615.4  1.16961e+06  173473  83999.1
   12620.6  1.17634e+06  174842  84900.6
   12625.8  1.17926e+06  175635  85519.7
   12631.3  1.18278e+06  176521  86200.1
   12636.6  1.18612e+06  177425  86862.2
   12642.1  1.18902e+06  178292  87519.8
   12647.4  1.19213e+06  179112  88136.9
   12652.9  1.1952e+06  180023  88808.5
   12658.2  1.19879e+06  180941  89491.6
   12663.8  1.20106e+06  181709  90092.3
   12669  1.2043e+06  182578  90751.5
   12674.6  1.20895e+06  183716  91545.2
   12680.2  1.21072e+06  184370  92122.4
   12685.8  1.2144e+06  185345  92864
   12691.1  1.2166e+06  186031  93436.4
   12696.7  1.22125e+06  187189  94266.1
   12702.3  1.22387e+06  187981  94914.4
   12708  1.22748e+06  188965  95675.2
   12713.6  1.22966e+06  189678  96307.6
   12719.3  1.2328e+06  190567  97038.4
   12724.9  1.23776e+06  191739  97877.7
   12730.6  1.24138e+06  192720  98648.6
   12736.2  1.24357e+06  193463  99310.1
   12741.9  1.24696e+06  194408  100076
   12747.9  1.24937e+06  195212  100783
   12753.6  1.25175e+06  196003  101475
   12759.2  1.25488e+06  196892  102226
   12764.9  1.25857e+06  197882  103047
   12771  1.26226e+06  198878  103862
   12776.7  1.26508e+06  199772  104627
   12782.4  1.26889e+06  200817  105461
   12788.4  1.27181e+06  201750  106240
   12794.1  1.27552e+06  202760  107067
   12800.2  1.27671e+06  203441  107749
   12806.3  1.27985e+06  204413  108564
   12812  1.28326e+06  205415  109361
   12818.1  1.28546e+06  206211  110101
   12824.2  1.28566e+06  206752  110708
   12829.9  1.28973e+06  207844  111572
   12836  1.29267e+06  208831  112402
   12842.1  1.29626e+06  209885  113271
   12848.2  1.30057e+06  211066  114218
   12854.4  1.30207e+06  211808  114953
   12860.5  1.30431e+06  212642  115722
   12866.3  1.30584e+06  213374  116433
   12872.4  1.30923e+06  214432  117345
   12878.6  1.31127e+06  215240  118121
   12885.1  1.31251e+06  215960  118852