File: data/as2s3_10K_scan1.xdi
# XDI/1.0
# Column.1: energy eV
# Column.2: i0
# Column.3: itrans
# Column.4: irefer
# Beamline.name: SSRL 2-3
# Beamline.notes: vert slits = 0.6mm
# Detector.I0: N2 15cm
# Detector.I1: Ar 30cm
# Detector.I2: Ar 15cm
# Element.edge: K
# Element.symbol: As
# Mono.d_spacing: 3.13550
# Mono.name: Si(111)
# Mono.notes: unfocused, detuned 75%, clockwise at E=12000eV
# Sample.formula: As2S3
# Sample.name: As2S3 arsenious sulfide (orpiment)
# Sample.prep: powder on tape (5 layers)
# Sample.reference: GaAs powder
# Sample.temperature: 10K
# Scan.start_time: 1997-04-19 16:23:01
# ///
#    Note: mono d_spacing is nominal!
#     exafs to K16, GaAs in IR
#     413  E XMU XMUR I0
#-------------
#   energy   i0   itrans  irefer
   11634.9  583761  92987.5  38257
   11644.9  581622  93012.5  38498
   11654.9  579259  93014.5  38722
   11665  576621  92973.5  38936
   11675.1  574120  92927.5  39136
   11684.9  569563  92549.5  39213
   11695  565371  92253.5  39322
   11705.1  562943  92215.5  39536
   11714.9  561438  92320.5  39810
   11725.1  559764  92399.5  40057
   11735  557078  92303.5  40258
   11744.9  553807  92099.5  40392
   11755.1  550642  91946.5  40552
   11765  548254  91890.5  40753
   11775  546050  91827.5  40957
   11784.9  541802  91455.5  41020
   11794.9  539035  91305.5  41191
   11804.9  536693  91202.5  41359
   11814.9  533678  90950.5  41467
   11824.9  530495  90614.5  41525
   11835  527822  90235.5  41537
   11845.1  525140  89533.5  41336
   11845.4  524754  89472.5  41315
   11846  523883  89302.5  41240
   11846.6  524671  89377.5  41271
   11846.9  524794  89398.5  41270
   11847.5  524224  89277.5  41229
   11848.1  523635  89133.5  41166
   11848.4  524161  89202.5  41193
   11849  523763  89083.5  41143
   11849.6  523628  88983.5  41096
   11849.9  523005  88859.5  41032
   11850.6  522873  88756.5  40988
   11850.9  522712  88698.5  40959
   11851.5  522021  88486.5  40851
   11852.1  521618  88354.5  40786
   11852.4  521373  88266.5  40742
   11853  521783  88249.5  40733
   11853.6  521695  88094.5  40655
   11853.9  521462  87984.5  40580
   11854.5  521355  87833.5  40514
   11855.1  521730  87722.5  40449
   11855.4  521746  87668.5  40406
   11856.1  521879  87505.5  40313
   11856.4  521423  87318.5  40216
   11857  521586  87111.5  40099
   11857.6  521783  86874.5  39953
   11857.9  521684  86734.5  39866
   11858.5  521024  86278.5  39620
   11859.1  520569  85836.5  39372
   11859.4  520830  85625.5  39249
   11860  520328  85053.5  38914
   11860.6  520418  84454.5  38563
   11861  520257  84127.5  38381
   11861.6  520104  83320.5  37894
   11861.9  519678  82795.5  37596
   11862.5  518631  81510.5  36851
   11863.1  518822  80125.5  36033
   11863.4  519118  79459.5  35636
   11864  518475  77329.5  34391
   11864.6  518430  74523.5  32777
   11864.9  517503  72687.5  31738
   11865.5  517756  68348.5  29311
   11865.9  517767  66244.5  28164
   11866.5  517293  59868.5  24798
   11867.1  517041  51737.5  20714
   11867.4  518301  47369.5  18605
   11868  517905  37914.5  14232
   11868.6  517594  28718.5  10187
   11868.9  517196  25468.5  8796
   11869.5  517599  19042.5  6083
   11870.1  518159  15587.5  4569
   11870.5  517841  15056.5  4263
   11871.1  517381  16105.5  4372
   11871.4  517161  17196.5  4634
   11872  516939  21031.5  5665
   11872.6  516115  25477.5  6916.99
   11872.9  515843  27704.5  7554
   11873.5  515786  31892.5  8796
   11874.1  515840  34829.5  9692.99
   11874.4  515257  35657.5  9972
   11875.1  514710  36827.5  10409
   11875.4  515060  37034.5  10527
   11876  515934  36856.5  10624
   11876.6  515508  36154.5  10583
   11876.9  515456  35839.5  10563
   11877.5  515593  35215.5  10578
   11878.1  515561  34864.5  10656
   11878.4  515049  34761.5  10700
   11879  514890  34803.5  10853
   11879.4  514836  34875.5  10919
   11880  515110  35171.5  11112
   11880.6  514964  35470.5  11278
   11880.9  514144  35578.5  11347
   11881.5  513789  35843.5  11485
   11882.1  514341  36157.5  11626
   11882.4  514598  36280.5  11679
   11883  513508  36435.5  11756
   11883.7  513501  36658.5  11834
   11884  513452  36755.5  11869
   11884.6  513386  36947.5  11924
   11884.9  512944  36991.5  11932
   11885.5  512581  37147.5  11988
   11886.1  511986  37246.5  12019
   11886.4  512076  37316.5  12047
   11887  511312  37406.5  12083
   11887.6  511501  37550.5  12137
   11888  511283  37595.5  12157
   11888.6  511912  37779.5  12230
   11888.9  511775  37836.5  12249
   11889.5  512158  38032.5  12314
   11890.1  511637  38176.5  12359
   11890.4  511788  38263.5  12381
   11891  512366  38502.5  12454
   11891.6  511175  38628.5  12487
   11892  511411  38744.5  12520
   11892.6  511280  38953.5  12590
   11892.9  511236  39040.5  12606
   11893.5  510940  39223.5  12672
   11894.1  510896  39429.5  12754
   11894.4  511262  39565.5  12801
   11895  511043  39765.5  12898
   11895.6  510431  39919.2  12997.8
   11896.3  509984  40101.5  13101
   11896.9  510525  40344.3  13221.8
   11897.5  510706  40552.6  13336.2
   11898.4  510597  40824.4  13461
   11899  510374  40981.6  13521.4
   11899.7  510859  41173.4  13586.2
   11900.6  510871  41402.8  13634.6
   11901.2  510521  41497.5  13650.5
   11902.1  510390  41623.9  13667
   11903  510669  41755.7  13707.9
   11903.7  511690  41896.1  13750.4
   11904.6  511908  41944.9  13773.4
   11905.5  512359  41986.3  13807.9
   11906.4  512504  41966.1  13812.9
   11907.4  513453  41973.5  13837.5
   11908.3  513531  41875.4  13816.6
   11909.2  513983  41775.7  13798.1
   11910.1  514613  41669.7  13773.3
   11911.1  515269  41515.1  13724.9
   11912.3  516001  41268  13634
   11913.2  516409  41058.4  13549.7
   11914.2  517261  40834.3  13465.9
   11915.4  518363  40526.7  13341.6
   11916.3  519633  40346.7  13281.8
   11917.6  520354  39997.1  13187.6
   11918.8  520964  39699.1  13136.8
   11919.7  521648  39496.5  13122.6
   11921  522663  39280.5  13114.9
   11922.2  524077  39149  13116.7
   11923.4  524527  38996  13103.1
   11924.7  524805  38867.5  13078.9
   11925.9  526715  38905.5  13108.3
   11927.1  530326  39100  13184.2
   11928.4  528419  38941  13135.6
   11929.6  530231  39087.5  13177.6
   11930.9  531039  39176.6  13201
   11932.4  532342  39352.1  13228
   11933.7  534541  39605.1  13284.5
   11934.9  535388  39828.7  13324.5
   11936.4  537275  40203.8  13401.1
   11938  537393  40498.3  13466.1
   11939.2  539424  40882.4  13571.7
   11940.8  540807  41310  13715.8
   11942.3  541722  41734.1  13877.4
   11943.6  542222  42036.7  14003.5
   11945.1  544197  42552.8  14201.2
   11946.7  547357  43129.4  14422.4
   11948.2  550644  43714.6  14642.1
   11949.8  551982  44113.2  14811.3
   11951.3  554371  44551.3  14980
   11952.9  555878  44873  15108.3
   11954.8  557806  45210.2  15262
   11956.3  558201  45346.8  15345.3
   11957.9  561441  45672  15494.1
   11959.7  563349  45863.6  15594.4
   11961.3  564794  45960.8  15633.3
   11963.2  566661  46077.6  15663.7
   11964.7  568717  46182.7  15696.6
   11966.6  570650  46239.5  15712
   11968.5  573149  46332.7  15771.9
   11970  574334  46312.4  15817.3
   11971.9  577146  46391.6  15939.3
   11973.8  579844  46476.4  16066.8
   11975.6  580758  46386.6  16119.8
   11977.5  582278  46355.4  16170.3
   11979.4  584640  46379.6  16204.3
   11981.3  586966  46409.4  16236.9
   11983.1  589152  46436.7  16259
   11985  591145  46460.5  16270.6
   11987.2  591726  46364.8  16217.7
   11989.1  594597  46469.6  16212.3
   11991.3  598902  46705.9  16246.5
   11993.2  602634  46953.7  16283.2
   11995.3  605217  47130  16276.4
   11997.2  607307  47312.9  16289.1
   11999.4  610146  47610.2  16347.3
   12001.3  612937  47923.1  16454.1
   12003.5  614243  48212.5  16572.4
   12005.7  618490  48777.3  16805.1
   12007.9  621064  49243.7  17010.5
   12010.1  622715  49683.6  17198.3
   12012.3  625097  50191.9  17423.6
   12014.5  628737  50813.9  17688.5
   12016.7  632285  51432.3  17963.9
   12018.9  636502  52091.2  18247.8
   12021.1  639613  52628.6  18480.2
   12023.6  642386  53135.5  18727.2
   12025.8  645228  53549  18937.7
   12028  649113  53991.9  19139.7
   12030.5  651581  54294.4  19305.2
   12032.7  654182  54571.3  19449.2
   12035.3  657058  54832.8  19595.7
   12037.8  659760  55055.8  19719.8
   12040  662301  55269.2  19834.4
   12042.5  666290  55553.2  19994.5
   12045  669792  55801.7  20118.1
   12047.6  673338  56021.7  20243.2
   12050.1  676530  56209.2  20355.9
   12052.6  679822  56401.3  20452.1
   12055.2  681628  56495.8  20475.8
   12057.7  683853  56600.8  20486
   12060.2  688444  56917.4  20582.8
   12062.8  693964  57329.4  20739
   12065.3  696270  57482  20816.8
   12068.1  701009  57854.1  21009.1
   12070.7  704096  58088.7  21126.9
   12073.2  708334  58425.7  21248.3
   12076.1  711215  58702.3  21316.1
   12078.6  715210  59098.4  21441.5
   12081.5  718512  59449  21537.4
   12084.3  721021  59774.1  21647.8
   12086.9  725177  60246.8  21808.7
   12089.7  728854  60698.9  21977.2
   12092.6  734230  61315.5  22243.2
   12095.5  737791  61799.6  22494.6
   12098.3  742074  62359.3  22785.7
   12101.2  744094  62754.5  23026.2
   12104.1  749343  63426.1  23343.3
   12107  754004  64039.3  23638.8
   12109.8  756176  64465  23869.9
   12112.7  759334  64966.2  24132.5
   12115.9  765431  65725.9  24512.7
   12118.8  769749  66302.1  24827.3
   12121.6  774364  66884.8  25125.5
   12124.9  777511  67340.1  25391.2
   12127.7  780519  67739.8  25620.4
   12130.9  785048  68267  25883.1
   12133.8  789351  68738.8  26110.3
   12137  791179  68989  26233.1
   12140.2  797764  69623.8  26468.4
   12143.4  801733  70020  26624.2
   12146.3  806560  70458.8  26771.5
   12149.6  808455  70640.1  26852.4
   12152.8  814170  71145.9  27047.7
   12156  817187  71425.2  27159.6
   12159.2  823192  71935  27386
   12162.4  826690  72238.3  27525.9
   12165.6  829837  72541.2  27677.4
   12169.2  833974  72951.5  27896.3
   12172.4  838868  73440.3  28138.8
   12175.6  844892  74027.7  28419.8
   12178.9  848215  74419.5  28625.3
   12182.4  853030  74968.9  28889.4
   12185.7  856834  75452.8  29111.9
   12189.2  860606  75943.2  29334
   12192.5  865555  76566  29652.6
   12196  870222  77191.4  29974.7
   12199.6  874137  77757.3  30266.3
   12202.8  878516  78354.7  30563.5
   12206.4  884418  79112.7  30929.2
   12210  887719  79649  31224.3
   12213.5  892534  80309  31584.1
   12217.1  896053  80883.4  31919.3
   12220.7  900567  81519.4  32271
   12224.3  904286  82084.8  32606.3
   12227.8  909222  82741.8  32976.1
   12231.4  912665  83248.3  33274.4
   12235  918672  83990.3  33641.2
   12238.9  922720  84564.8  33956.6
   12242.5  925730  85026.7  34212.4
   12246.1  932164  85793.2  34587.8
   12250  936024  86336.3  34851.7
   12253.6  939600  86819.8  35053.2
   12257.5  944339  87411.8  35311.1
   12261.2  948231  87908.4  35533.6
   12265.1  950671  88286.3  35724.5
   12269  956053  88915.9  36033.1
   12272.6  960484  89424  36295.1
   12276.6  965218  89985.5  36581.6
   12280.5  971739  90717.6  36943.7
   12284.4  975751  91220.2  37217.3
   12288.4  980283  91779.2  37521.3
   12292.3  982935  92157.8  37779
   12296.3  988856  92854  38166.1
   12300.2  993165  93416.6  38500.8
   12304.2  996973  93934.7  38808.9
   12308.2  1.00121e+06  94512.4  39155.7
   12312.1  1.00625e+06  95192.4  39532.9
   12316.1  1.01059e+06  95809.1  39895.6
   12320.4  1.01391e+06  96369.2  40245.8
   12324.3  1.01961e+06  97118.9  40654.6
   12328.7  1.0226e+06  97685.1  40993.9
   12332.6  1.02739e+06  98377.7  41404.7
   12336.6  1.03119e+06  98996  41770.1
   12340.9  1.03677e+06  99810.6  42242.9
   12345.2  1.04112e+06  100490  42644.3
   12349.2  1.04557e+06  101185  43018.2
   12353.5  1.05081e+06  101958  43452.6
   12357.9  1.05507e+06  102653  43837.5
   12362.2  1.05675e+06  103095  44123
   12366.2  1.06315e+06  103959  44588.9
   12370.5  1.06654e+06  104546  44947.4
   12374.9  1.0715e+06  105287  45366.5
   12379.2  1.07536e+06  105895  45722
   12383.5  1.0784e+06  106426  46028
   12387.9  1.08458e+06  107252  46470.6
   12392.6  1.08595e+06  107606  46718.7
   12396.9  1.09098e+06  108295  47098.3
   12401.3  1.09681e+06  109101  47534.4
   12405.6  1.1005e+06  109664  47870
   12410.3  1.10529e+06  110345  48272.2
   12414.7  1.10911e+06  110930  48624.9
   12419  1.11377e+06  111607  49025.1
   12423.8  1.11689e+06  112130  49379.8
   12428.1  1.11817e+06  112471  49658.1
   12432.8  1.12377e+06  113258  50135.8
   12437.6  1.12711e+06  113840  50532.1
   12441.9  1.13102e+06  114452  50928.9
   12446.7  1.13536e+06  115154  51400.2
   12451.4  1.13941e+06  115852  51851
   12456.1  1.14531e+06  116707  52382.4
   12460.5  1.14768e+06  117216  52754.3
   12465.3  1.15058e+06  117797  53149.7
   12470  1.15717e+06  118752  53730.6
   12474.7  1.16221e+06  119599  54266
   12479.5  1.16654e+06  120329  54740
   12484.2  1.17263e+06  121266  55290.5
   12489  1.17649e+06  121967  55756.4
   12494.1  1.17802e+06  122475  56098.9
   12498.9  1.18024e+06  123023  56494
   12503.6  1.18257e+06  123576  56867.6
   12508.4  1.18732e+06  124373  57363.6
   12513.5  1.19013e+06  125010  57797.2
   12518.3  1.19489e+06  125828  58322.3
   12523.4  1.19933e+06  126596  58815.9
   12528.2  1.20332e+06  127304  59270.1
   12533.4  1.20565e+06  127904  59695.7
   12538.1  1.21193e+06  128854  60286.9
   12543.3  1.21453e+06  129427  60699.7
   12548.1  1.21857e+06  130137  61176.9
   12553.2  1.22296e+06  130923  61718.6
   12558.4  1.22528e+06  131456  62099.9
   12563.6  1.22812e+06  132062  62552.7
   12568.7  1.23304e+06  132890  63109
   12573.5  1.23587e+06  133474  63553.8
   12578.7  1.24218e+06  134481  64219.2
   12583.9  1.24596e+06  135185  64694
   12589.1  1.24907e+06  135827  65193.4
   12594.2  1.25359e+06  136617  65766.3
   12599.4  1.2575e+06  137371  66310.7
   12605  1.25901e+06  137880  66742.7
   12610.2  1.2615e+06  138465  67230.1
   12615.4  1.26624e+06  139315  67823.1
   12620.6  1.26918e+06  139990  68332.6
   12625.8  1.27647e+06  141144  69090.6
   12631.3  1.27713e+06  141593  69506.2
   12636.6  1.27903e+06  142170  69974.2
   12642.1  1.28329e+06  143063  70590.8
   12647.4  1.2868e+06  143810  71141.9
   12652.9  1.29069e+06  144648  71746.5
   12658.2  1.29023e+06  144963  72087.6
   12663.8  1.29451e+06  145842  72718.3
   12669  1.29932e+06  146739  73323.5
   12674.6  1.30142e+06  147383  73840.2
   12680.2  1.30426e+06  148091  74411.4
   12685.8  1.3074e+06  148839  74965.1
   12691.1  1.31377e+06  149922  75700.4
   12696.7  1.31414e+06  150360  76115.1
   12702.3  1.31612e+06  150983  76640.4
   12708  1.32041e+06  151842  77289.2
   12713.6  1.32364e+06  152627  77892.5
   12719.3  1.32941e+06  153644  78618.4
   12724.9  1.33316e+06  154454  79266.8
   12730.6  1.3339e+06  154921  79717.6
   12736.2  1.3373e+06  155678  80332
   12741.9  1.34226e+06  156633  81057.9
   12747.9  1.34268e+06  157093  81514.4
   12753.6  1.34914e+06  158224  82328.4
   12759.2  1.35031e+06  158755  82848.9
   12764.9  1.35473e+06  159652  83536.8
   12771  1.35668e+06  160301  84130.4
   12776.7  1.36173e+06  161326  84903.4
   12782.4  1.36387e+06  161962  85461.9
   12788.4  1.36758e+06  162831  86167.1
   12794.1  1.36835e+06  163360  86673.7
   12800.2  1.37225e+06  164283  87406.8
   12806.3  1.37242e+06  164744  87913.5
   12812  1.37655e+06  165667  88650.6
   12818.1  1.37807e+06  166285  89235.2
   12824.2  1.38113e+06  167108  89918.5
   12829.9  1.38508e+06  168054  90656.2
   12836  1.38789e+06  168815  91303.4
   12842.1  1.38872e+06  169391  91877.2
   12848.2  1.39162e+06  170203  92573.4
   12854.4  1.39207e+06  170736  93130.2
   12860.5  1.3971e+06  171798  93962.5
   12866.3  1.40208e+06  172845  94793.4
   12872.4  1.40311e+06  173433  95365.7
   12878.6  1.40504e+06  174130  96010.6
   12885.1  1.40498e+06  174603  96561