File: data/as2s3_100K_scan3.xdi
# XDI/1.0
# Column.1: energy eV
# Column.2: i0
# Column.3: itrans
# Column.4: irefer
# Beamline.name: SSRL 2-3
# Beamline.notes: vert slits = 0.6mm
# Detector.I0: N2 15cm
# Detector.I1: Ar 30cm
# Detector.I2: Ar 15cm
# Element.edge: K
# Element.symbol: As
# Mono.d_spacing: 3.13550
# Mono.name: Si(111)
# Mono.notes: unfocused, detuned 75%, clockwise at E=12000eV
# Sample.formula: As2S3
# Sample.name: As2S3 arsenious sulfide (orpiment)
# Sample.prep: powder on tape (5 layers)
# Sample.reference: GaAs powder
# Sample.temperature: 100K
# Scan.start_time: 1997-04-19 22:41:20
# ///
#    Note: mono d_spacing is nominal!
#     exafs to K16, GaAs in IR
#     413  E XMU XMUR I0
#-------------
#   energy   i0   itrans  irefer
   11634.9  516546  92236.5  37653
   11644.9  513485  92039.5  37780
   11654.9  510722  91877.5  37957
   11665  508149  91764.5  38133
   11675.1  506275  91754.5  38358
   11684.9  503630  91598.5  38511
   11695  500118  91323.5  38616
   11705.1  498223  91298.5  38834
   11714.9  495455  91118.5  38985
   11725.1  493347  91037.5  39172
   11735  491038  90940.5  39358
   11744.9  488365  90758.5  39494
   11755.1  485997  90659.5  39690
   11765  483055  90418.5  39806
   11775  480602  90285.5  39975
   11784.9  478834  90253.5  40185
   11794.9  476031  90016.5  40300
   11804.9  473829  89884.5  40448
   11814.9  470667  89529.5  40514
   11824.9  469218  89468.5  40688
   11835  466047  89014.5  40660
   11845.1  464174  88494.5  40541
   11845.4  463333  88323.5  40454
   11846  463412  88301.5  40449
   11846.6  463169  88227.5  40418
   11846.9  463543  88286.5  40442
   11847.5  463110  88155.5  40392
   11848.1  462835  88070.5  40346
   11848.4  462691  88033.5  40325
   11849  462503  87952.5  40286
   11849.6  462318  87854.5  40244
   11849.9  461612  87693.5  40158
   11850.6  461334  87561.5  40091
   11850.9  461843  87645.5  40125
   11851.5  461710  87555.5  40077
   11852.1  461749  87444.5  40013
   11852.4  461648  87428.5  40015
   11853  462288  87440.5  39999
   11853.6  462033  87283.5  39913
   11853.9  461640  87139.5  39839
   11854.5  461260  86943.5  39718
   11855.1  461827  86895.5  39674
   11855.4  461900  86845.5  39633
   11856.1  461174  86500.5  39453
   11856.4  461516  86458.5  39407
   11857  461582  86228.5  39260
   11857.6  461293  85889.5  39047
   11857.9  460822  85665.5  38927
   11858.5  460683  85235.5  38661
   11859.1  460999  84847.5  38397
   11859.4  460552  84549.5  38206
   11860  460674  83965.5  37827
   11860.6  460481  83145.5  37313
   11861  460450  82780.5  37062
   11861.6  460363  81653.5  36343
   11861.9  459815  80933.5  35905
   11862.5  459228  79138.5  34770
   11863.1  459377  76867.5  33330
   11863.4  458927  75656.5  32582
   11864  458297  71893.5  30310
   11864.6  458479  66773.5  27333
   11864.9  459029  63852.5  25697
   11865.5  458819  56409.5  21790
   11865.9  458341  52990.5  20081
   11866.5  458779  44287.5  15892
   11867.1  458822  35747.5  11998
   11867.4  458713  32300.5  10469
   11868  458480  26941.5  8095
   11868.6  459080  24535.5  6895
   11868.9  459038  24421.5  6734
   11869.5  458732  26010.5  6980
   11870.1  458059  29586.5  7904.99
   11870.5  458052  31752.5  8503
   11871.1  457942  36427.5  9833
   11871.4  457443  38178.5  10344
   11872  457020  42235.5  11562
   11872.6  456909  45189.5  12504
   11872.9  456841  46137.5  12824
   11873.5  456781  47278.5  13289
   11874.1  456756  47429.5  13489
   11874.4  456660  47274.5  13528
   11875.1  456928  46717.5  13589
   11875.4  456814  46405.5  13605
   11876  456656  45838.5  13684
   11876.6  456762  45541.5  13826
   11876.9  456705  45496.5  13891
   11877.5  456531  45479.5  14078
   11878.1  456360  45673.5  14282
   11878.4  456568  45829.5  14384
   11879  456482  46092.5  14565
   11879.4  456119  46177.5  14622
   11880  456169  46470.5  14788
   11880.6  456343  46734.5  14927
   11880.9  455984  46807.5  14977
   11881.5  455477  46964.5  15057
   11882.1  455209  47130.5  15120
   11882.4  455066  47205.5  15150
   11883  455105  47388.5  15199
   11883.7  454503  47481.5  15225
   11884  454099  47511.5  15228
   11884.6  453948  47646.5  15268
   11884.9  453909  47695.5  15289
   11885.5  453460  47775.5  15331
   11886.1  453298  47875.5  15372
   11886.4  453586  47972.5  15412
   11887  453732  48110.5  15469
   11887.6  453820  48262.5  15528
   11888  453441  48285.5  15534
   11888.6  454050  48508.5  15613
   11888.9  453877  48576.5  15623
   11889.5  453956  48750.5  15668
   11890.1  453619  48903.5  15717
   11890.4  453506  48965.5  15730
   11891  453774  49182.5  15791
   11891.6  453409  49320.5  15833
   11892  452680  49353.5  15835
   11892.6  453193  49593.5  15930
   11892.9  452893  49636.5  15956
   11893.5  452457  49773.5  16033
   11894.1  452722  49996.5  16153
   11894.4  453106  50129.5  16222
   11895  452839  50285.5  16330
   11895.6  452381  50401.2  16425.8
   11896.3  452522  50592.5  16538
   11896.9  452284  50729.3  16616.8
   11897.5  452627  50922.6  16697.2
   11898.4  451986  51065.3  16737
   11899  452463  51236.6  16774.4
   11899.7  452681  51390.5  16797.2
   11900.6  453092  51575.8  16829.6
   11901.2  452605  51591.6  16821.5
   11902.1  452954  51725.9  16865
   11903  453134  51806.7  16892.9
   11903.7  453729  51879.1  16931.4
   11904.6  453767  51889.9  16962.4
   11905.5  454146  51883.3  16983.9
   11906.4  454672  51888.1  17006.9
   11907.4  455373  51870.5  17014.5
   11908.3  455815  51797.4  17007.6
   11909.2  455749  51643.7  16959.1
   11910.1  456488  51549.6  16929.3
   11911.1  457556  51454.1  16882.9
   11912.3  457775  51170.9  16770
   11913.2  458298  50987.4  16686.7
   11914.2  459497  50854.3  16636.9
   11915.4  460475  50623.7  16569.6
   11916.3  460851  50424.7  16526.8
   11917.6  461099  50135.1  16495.6
   11918.8  462237  49983.1  16523.8
   11919.7  463266  49913.6  16560.6
   11921  464364  49819.5  16602.9
   11922.2  464810  49701  16593.7
   11923.4  465842  49686  16618.1
   11924.7  466456  49660.4  16625.9
   11925.9  468283  49809.5  16692.3
   11927.1  468949  49875  16717.2
   11928.4  469733  49974  16739.7
   11929.6  470869  50119.5  16784.6
   11930.9  472458  50344.5  16833
   11932.4  474397  50679.1  16898
   11933.7  475278  50911.1  16930.5
   11934.9  475983  51167.7  16961.5
   11936.4  477302  51565.7  17042.1
   11938  478686  51991.3  17150.1
   11939.2  479691  52323.4  17259.7
   11940.8  480217  52698  17414.8
   11942.3  480913  53081.1  17575.4
   11943.6  482983  53562.7  17765.6
   11945.1  486027  54223.8  18019.2
   11946.7  488620  54792.4  18234.4
   11948.2  489705  55191.6  18410.1
   11949.8  491265  55598.2  18567.3
   11951.3  492695  55955.3  18722
   11952.9  494756  56357  18889.2
   11954.8  496701  56696.1  19057
   11956.3  498364  56948.8  19197.3
   11957.9  499996  57168  19308.1
   11959.7  501829  57389.6  19395.4
   11961.3  503565  57563.8  19456.3
   11963.2  505900  57777.5  19511.7
   11964.7  507935  57946.8  19566.6
   11966.6  510008  58096.5  19641
   11968.5  511642  58182.7  19737.9
   11970  513553  58304.4  19870.3
   11971.9  515984  58448.6  20046.3
   11973.8  518010  58562.4  20191.8
   11975.6  519732  58619.6  20292.8
   11977.5  522334  58791.4  20401.3
   11979.4  524870  58929.6  20482.3
   11981.3  526249  58978.4  20521.9
   11983.1  527958  59048.7  20548
   11985  529822  59145.5  20571.6
   11987.2  530633  59129.8  20525.7
   11989.1  534407  59483.6  20591.3
   11991.3  538303  59865.9  20658.5
   11993.2  540798  60125.7  20671.2
   11995.3  542702  60359.1  20673.4
   11997.2  544648  60623.9  20709.1
   11999.4  547787  61079.3  20844.3
   12001.3  549917  61452.1  20984.1
   12003.5  552837  61972.5  21199.4
   12005.7  555330  62479.3  21423.1
   12007.9  557942  63044.7  21677.5
   12010.1  559712  63539.6  21889.3
   12012.3  561596  64057.9  22137.6
   12014.5  565523  64799.9  22463.5
   12016.7  569126  65514.2  22770.9
   12018.9  571980  66106.2  23039.8
   12021.1  573957  66579.6  23276.2
   12023.6  577272  67191.5  23571.2
   12025.8  580217  67687.9  23823.7
   12028  582753  68081.9  24022.6
   12030.5  585810  68515.4  24235.2
   12032.7  588722  68893.3  24425.2
   12035.3  591694  69262.8  24613.7
   12037.8  594130  69556.7  24781.8
   12040  596956  69897.2  24965.4
   12042.5  600219  70250.2  25135.5
   12045  603322  70577.7  25305.1
   12047.6  606046  70849.8  25474.3
   12050.1  609146  71169.3  25624.9
   12052.6  611865  71420.3  25723.1
   12055.2  613190  71552.8  25745.8
   12057.7  616223  71847.8  25811
   12060.2  621576  72444.4  26030.8
   12062.8  624821  72802.4  26193
   12065.3  628779  73245.9  26406.8
   12068.1  631562  73573.1  26575.1
   12070.7  634901  73964.6  26732.9
   12073.2  638545  74417.7  26878.3
   12076.1  640947  74749.3  26963.1
   12078.6  645301  75327.4  27138.5
   12081.5  647500  75699  27243.4
   12084.3  651150  76259.1  27432.8
   12086.9  653941  76726.7  27607.7
   12089.7  658951  77465.9  27907.2
   12092.6  662443  78038.5  28189.2
   12095.5  665715  78631.7  28509.6
   12098.3  668176  79130.3  28802.7
   12101.2  670174  79592.5  29070.2
   12104.1  675144  80396.2  29444.3
   12107  677582  80920.3  29726.8
   12109.8  681848  81663  30103.9
   12112.7  682746  81963.2  30313.5
   12115.9  690213  83104.9  30869.6
   12118.8  692325  83537.1  31137.3
   12121.6  697306  84327.8  31551.5
   12124.9  699495  84754  31821.2
   12127.7  703490  85367.8  32132.4
   12130.9  706627  85878  32400.1
   12133.8  710873  86500.8  32681.3
   12137  712745  86794  32812.1
   12140.2  719383  87687.8  33138.4
   12143.4  722453  88095  33281.2
   12146.3  725507  88517.8  33447.5
   12149.6  729033  88963.1  33618.3
   12152.8  733183  89503.9  33833.7
   12156  737328  90032.2  34044.6
   12159.2  740235  90418  34236
   12162.4  745560  91094.3  34526.9
   12165.6  747620  91398.1  34707.3
   12169.2  752518  92067.5  35022.3
   12172.4  755936  92577.3  35283.8
   12175.6  760706  93251.7  35609.8
   12178.9  764257  93815.5  35880.3
   12182.4  767687  94369.9  36156.3
   12185.7  772189  95076.7  36455.9
   12189.2  775204  95635.2  36760
   12192.5  780363  96457  37149.6
   12196  783574  97061.4  37483.7
   12199.6  787108  97734.3  37837.3
   12202.8  791086  98428.7  38182.5
   12206.4  795058  99155.7  38555.2
   12210  799020  99877  38945.3
   12213.5  803840  100718  39387
   12217.1  807708  101413  39801.3
   12220.7  812625  102276  40281
   12224.3  814500  102729  40599.3
   12227.8  819643  103594  41052.1
   12231.4  824070  104355  41470.4
   12235  828292  105076  41840.2
   12238.9  831897  105747  42236.6
   12242.5  835269  106350  42551.4
   12246.1  840362  107179  42964.8
   12250  844256  107835  43265.7
   12253.6  848725  108588  43566.2
   12257.5  852999  109282  43879.1
   12261.2  856278  109867  44148.6
   12265.1  860414  110545  44490.5
   12269  863306  111078  44768.1
   12272.6  868536  111857  45159.1
   12276.6  873128  112577  45515.6
   12280.5  874504  112907  45729.7
   12284.4  881096  113920  46222.2
   12288.4  885127  114568  46587.4
   12292.3  888538  115164  46953
   12296.3  893786  116000  47405.1
   12300.2  897695  116709  47836.8
   12304.2  902453  117499  48264
   12308.2  904715  117998  48608.6
   12312.1  910477  118939  49133.9
   12316.1  914153  119653  49528.6
   12320.4  917730  120356  49962.8
   12324.3  923054  121286  50479.6
   12328.7  925283  121851  50840
   12332.6  930363  122774  51370.8
   12336.6  933460  123446  51800.1
   12340.9  939652  124540  52386.9
   12345.2  942101  125154  52782.3
   12349.2  946859  126052  53276.2
   12353.5  950906  126872  53736.6
   12357.9  954555  127650  54182.6
   12362.2  958598  128448  54652
   12366.2  962911  129284  55127
   12370.5  968515  130277  55681.5
   12374.9  972765  131130  56177.5
   12379.2  976613  131890  56635
   12383.5  980339  132616  57043
   12387.9  983483  133290  57412.6
   12392.6  986077  133888  57764.7
   12396.9  993547  135121  58416.3
   12401.3  997567  135906  58879.4
   12405.6  1.00185e+06  136666  59323
   12410.3  1.00544e+06  137435  59781.2
   12414.7  1.00882e+06  138089  60190.9
   12419  1.01355e+06  138938  60698.1
   12423.8  1.01641e+06  139607  61150.8
   12428.1  1.02045e+06  140387  61627
   12432.8  1.02416e+06  141152  62131.8
   12437.6  1.02863e+06  142023  62690.1
   12441.9  1.03175e+06  142727  63167.9
   12446.7  1.03742e+06  143764  63816.2
   12451.4  1.04005e+06  144413  64295
   12456.1  1.04439e+06  145311  64854.4
   12460.5  1.0482e+06  146119  65392.3
   12465.3  1.05046e+06  146732  65850.7
   12470  1.05695e+06  147957  66583.6
   12474.7  1.06076e+06  148817  67145
   12479.5  1.066e+06  149863  67790.9
   12484.2  1.06936e+06  150660  68325.5
   12489  1.07303e+06  151502  68883.4
   12494.1  1.07616e+06  152261  69379
   12498.9  1.08004e+06  153174  69975
   12503.6  1.08451e+06  154097  70531.6
   12508.4  1.08728e+06  154827  71022.7
   12513.5  1.09032e+06  155615  71559.2
   12518.3  1.09668e+06  156836  72280.3
   12523.4  1.10053e+06  157723  72874.9
   12528.2  1.10431e+06  158567  73429.1
   12533.4  1.10714e+06  159329  73962.8
   12538.1  1.11057e+06  160106  74502.9
   12543.3  1.11282e+06  160754  74974.7
   12548.1  1.11805e+06  161791  75637.9
   12553.2  1.12184e+06  162690  76248.6
   12558.4  1.12494e+06  163462  76805.9
   12563.6  1.12984e+06  164485  77471.7
   12568.7  1.13405e+06  165425  78136
   12573.5  1.13828e+06  166341  78754.8
   12578.7  1.14372e+06  167467  79494.1
   12583.9  1.14699e+06  168283  80117
   12589.1  1.15047e+06  169150  80734.4
   12594.2  1.15461e+06  170063  81406.3
   12599.4  1.15787e+06  170903  82044.7
   12605  1.15908e+06  171425  82546.7
   12610.2  1.16326e+06  172440  83258.1
   12615.4  1.16596e+06  173182  83861.1
   12620.6  1.17053e+06  174237  84592.6
   12625.8  1.17222e+06  174893  85130.6
   12631.3  1.17673e+06  175950  85882.2
   12636.6  1.18123e+06  177035  86648.2
   12642.1  1.18474e+06  177958  87339.8
   12647.4  1.18855e+06  178924  88025.9
   12652.9  1.19231e+06  179885  88730.5
   12658.2  1.19292e+06  180338  89174.6
   12663.8  1.19656e+06  181315  89884.3
   12669  1.201e+06  182403  90645.5
   12674.6  1.20434e+06  183303  91343.2
   12680.2  1.20661e+06  184051  91921.4
   12685.8  1.21028e+06  184991  92656
   12691.1  1.21396e+06  185961  93338.4
   12696.7  1.21822e+06  187023  94143.1
   12702.3  1.22269e+06  188106  94950.4
   12708  1.2241e+06  188737  95547.2
   12713.6  1.22766e+06  189686  96274.6
   12719.3  1.22771e+06  190081  96741.4
   12724.9  1.22988e+06  190849  97384.8
   12730.6  1.23462e+06  192004  98230.6
   12736.2  1.23871e+06  193008  99019.1
   12741.9  1.24206e+06  193955  99772
   12747.9  1.24455e+06  194771  100517
   12753.6  1.24605e+06  195440  101153
   12759.2  1.25122e+06  196623  102041
   12764.9  1.25352e+06  197398  102734
   12771  1.25601e+06  198233  103482
   12776.7  1.25732e+06  198890  104114
   12782.4  1.26235e+06  200083  105008
   12788.4  1.26311e+06  200685  105631
   12794.1  1.26739e+06  201811  106523
   12800.2  1.2682e+06  202403  107131
   12806.3  1.27273e+06  203617  108090
   12812  1.27543e+06  204486  108849
   12818.1  1.2791e+06  205555  109699
   12824.2  1.28033e+06  206211  110365
   12829.9  1.28276e+06  207086  111112
   12836  1.28485e+06  207888  111839
   12842.1  1.28666e+06  208617  112538
   12848.2  1.29128e+06  209905  113547
   12854.4  1.29438e+06  210871  114396
   12860.5  1.29812e+06  211968  115297
   12866.3  1.29993e+06  212743  116046
   12872.4  1.30075e+06  213353  116708
   12878.6  1.30239e+06  214120  117430
   12885.1  1.30438e+06  214976  118275