File: data/as2s3_roomt_scan1.xdi
# XDI/1.0
# Column.1: energy eV
# Column.2: i0
# Column.3: itrans
# Column.4: irefer
# Beamline.name: SSRL 2-3
# Beamline.notes: vert slits = 0.6mm
# Detector.I0: N2 15cm
# Detector.I1: Ar 30cm
# Detector.I2: Ar 15cm
# Element.edge: K
# Element.symbol: As
# Mono.d_spacing: 3.13550
# Mono.name: Si(111)
# Mono.notes: unfocused, detuned 75%, clockwise at E=12000eV
# Sample.formula: As2S3
# Sample.name: As2S3 arsenious sulfide (orpiment)
# Sample.prep: powder on tape (5 layers)
# Sample.reference: GaAs powder
# Sample.temperature: room temp
# Scan.start_time: 1997-04-20 10:51:20
# ///
#    Note: mono d_spacing is nominal!
#     exafs to K16, GaAs in IR
#     413  E XMU XMUR I0
#-------------
#   energy   i0   itrans  irefer
   11634.9  641230  111626  45428
   11644.9  637817  111460  45628
   11654.9  635343  111426  45883
   11665  631647  111200  46065
   11675.1  628660  111094  46297
   11684.9  626480  111133  46579
   11695  621510  110661  46649
   11705.1  619050  110607  46908
   11714.9  616046  110516  47133
   11725.1  613076  110391  47343
   11735  611138  110415  47636
   11744.9  608121  110266  47834
   11755.1  604962  110075  48024
   11765  601790  109878  48225
   11775  598414  109653  48385
   11784.9  596562  109673  48656
   11794.9  593258  109438  48839
   11804.9  590129  109211  49004
   11814.9  587128  108966  49152
   11824.9  584279  108679  49276
   11835  581602  108296  49318
   11845.1  578379  107522  49136
   11845.4  577943  107423  49080
   11846  577750  107362  49056
   11846.6  577668  107320  49044
   11846.9  577593  107262  49004
   11847.5  577647  107238  48997
   11848.1  577301  107124  48947
   11848.4  577104  107072  48918
   11849  577660  107128  48955
   11849.6  576374  106819  48811
   11849.9  575900  106708  48757
   11850.6  575802  106612  48718
   11850.9  575856  106548  48674
   11851.5  575430  106415  48603
   11852.1  575021  106247  48525
   11852.4  575255  106235  48517
   11853  575309  106119  48444
   11853.6  575039  105938  48346
   11853.9  575107  105891  48319
   11854.5  575635  105816  48272
   11855.1  575820  105673  48181
   11855.4  575139  105468  48075
   11856.1  575519  105320  47979
   11856.4  575221  105149  47885
   11857  575114  104896  47730
   11857.6  574457  104434  47466
   11857.9  574726  104338  47405
   11858.5  574934  103962  47168
   11859.1  574724  103481  46880
   11859.4  573951  103115  46676
   11860  573993  102494  46284
   11860.6  574318  101808  45850
   11861  573704  101357  45601
   11861.6  573611  100312  44960
   11861.9  573595  99755.5  44605
   11862.5  573185  98233.5  43685
   11863.1  573109  96356.5  42539
   11863.4  572551  95327.5  41922
   11864  572069  92269.5  40084
   11864.6  572302  88200.5  37679
   11864.9  571901  85739.5  36259
   11865.5  571602  79218.5  32634
   11865.9  571617  76155.5  30996
   11866.5  572423  66876.5  26208
   11867.1  572461  56292.5  21072
   11867.4  572668  51221.5  18699
   11868  573325  41012.5  14095
   11868.6  573889  32461.5  10342
   11868.9  573654  29966.5  9254
   11869.5  573901  25980.5  7408
   11870.1  573824  25875.5  7011
   11870.5  573382  26925.5  7213
   11871.1  572849  30928.5  8218
   11871.4  572291  32888.5  8748
   11872  571881  38446.5  10296
   11872.6  571340  43871.5  11865
   11872.9  570604  46028.5  12518
   11873.5  569900  49662.5  13630
   11874.1  569802  51850.5  14380
   11874.4  570036  52364.5  14591
   11875.1  569698  52703.5  14853
   11875.4  569756  52577.5  14918
   11876  570212  51973.5  14971
   11876.6  570527  51288.5  15038
   11876.9  570015  51008.5  15058
   11877.5  569738  50588.5  15203
   11878.1  570018  50513.5  15415
   11878.4  570026  50565.5  15532
   11879  569517  50761.5  15764
   11879.4  568981  50861.5  15844
   11880  569090  51206.5  16061
   11880.6  569143  51575.5  16272
   11880.9  568852  51714.5  16355
   11881.5  569105  52029.5  16527
   11882.1  568641  52265.5  16657
   11882.4  568310  52337.5  16694
   11883  567942  52543.5  16779
   11883.7  567790  52743.5  16846
   11884  567869  52843.5  16880
   11884.6  567024  52972.5  16905
   11884.9  566650  53015.5  16913
   11885.5  566350  53162.5  16966
   11886.1  566093  53302.5  17009
   11886.4  566319  53387.5  17052
   11887  565764  53491.5  17091
   11887.6  565800  53667.5  17168
   11888  566522  53804.5  17226
   11888.6  566652  54001.5  17294
   11888.9  566347  54056.5  17311
   11889.5  566367  54275.5  17385
   11890.1  566449  54490.5  17448
   11890.4  565922  54533.5  17456
   11891  565658  54729.5  17510
   11891.6  565765  54966.5  17573
   11892  566309  55127.5  17623
   11892.6  565951  55321.5  17677
   11892.9  565405  55367.5  17696
   11893.5  565094  55568.5  17768
   11894.1  565228  55804.5  17874
   11894.4  565122  55911.5  17920
   11895  564497  56060.5  18022
   11895.6  564677  56289.3  18152.8
   11896.3  564504  56496.5  18291
   11896.9  564664  56721.3  18424.8
   11897.5  564481  56908.5  18527.2
   11898.4  564447  57194.3  18670
   11899  564987  57430.6  18747.3
   11899.7  564732  57580.4  18784.2
   11900.6  564795  57804.7  18824.6
   11901.2  565079  57955.6  18843.5
   11902.1  565631  58181.9  18895
   11903  566043  58308.7  18935.9
   11903.7  565828  58346.1  18945.4
   11904.6  566381  58444.9  18992.4
   11905.5  567219  58526.2  19041.9
   11906.4  567495  58509.1  19064.9
   11907.4  567338  58412.5  19057.5
   11908.3  568481  58434.4  19073.6
   11909.2  569175  58348.7  19069.1
   11910.1  569989  58247.7  19044.3
   11911.1  570106  58039.1  18968.9
   11912.3  571168  57795  18873
   11913.2  572494  57652.4  18808.7
   11914.2  573607  57458.3  18716.9
   11915.4  574029  57100.7  18592.6
   11916.3  575083  56899.7  18527.8
   11917.6  576364  56624.1  18468.6
   11918.8  577482  56348.1  18462.8
   11919.7  578447  56194.5  18472.6
   11921  579475  55969.5  18491.9
   11922.2  580733  55835  18512.7
   11923.4  582142  55755  18536.1
   11924.7  582823  55666.5  18536.9
   11925.9  584152  55689.5  18557.3
   11927.1  585377  55730  18595.2
   11928.4  587196  55893  18652.7
   11929.6  588920  56086.5  18707.6
   11930.9  590289  56255.5  18750
   11932.4  591440  56482.1  18782
   11933.7  593041  56777.2  18839.5
   11934.9  595142  57166.7  18911.5
   11936.4  597024  57633.8  18991.1
   11938  598770  58109.4  19101.1
   11939.2  599630  58466.4  19196.7
   11940.8  600775  58940  19360.8
   11942.3  601296  59380.1  19545.4
   11943.6  602755  59815.7  19713.6
   11945.1  605277  60433.8  19967.2
   11946.7  609185  61204.4  20249.4
   11948.2  611749  61810.5  20497
   11949.8  614028  62364.2  20709.3
   11951.3  615789  62806.3  20896
   11952.9  618444  63296  21084.3
   11954.8  620446  63696.2  21277
   11956.3  622471  64005.8  21433.3
   11957.9  625127  64349  21609.1
   11959.7  627576  64645.7  21745.5
   11961.3  629481  64835.9  21812.3
   11963.2  631696  64997.5  21854.7
   11964.7  633852  65160.7  21898.5
   11966.6  636767  65349.5  21973
   11968.5  639096  65459.7  22042.9
   11970  642347  65669.4  22193.3
   11971.9  644554  65739.6  22346.3
   11973.8  646931  65814.4  22512.8
   11975.6  648790  65827.6  22640.8
   11977.5  651739  65959.4  22764.3
   11979.4  655559  66191.7  22880.4
   11981.3  657872  66274.4  22942.9
   11983.1  660448  66376.7  22991
   11985  663403  66555.5  23055.6
   11987.2  664000  66481.8  22993.7
   11989.1  667269  66728.6  23023.3
   11991.3  671908  67122.9  23079.5
   11993.2  675826  67497.8  23132.2
   11995.3  678307  67765.1  23134.4
   11997.2  682028  68191.9  23205.1
   11999.4  684604  68575.2  23296.3
   12001.3  687551  69023.1  23439.1
   12003.5  690697  69547.4  23651.3
   12005.7  693543  70111.3  23902.1
   12007.9  696270  70689.7  24153.5
   12010.1  699924  71396.6  24457.3
   12012.3  701324  71853.9  24676.6
   12014.5  705521  72634.9  25028.5
   12016.7  710290  73464.2  25392.9
   12018.9  714647  74218.1  25723.8
   12021.1  717400  74792.6  25992.2
   12023.6  721946  75546.5  26347.2
   12025.8  724983  76046  26611.7
   12028  729411  76638.9  26891.7
   12030.5  732687  77078.3  27131.1
   12032.7  736275  77513.3  27332.2
   12035.3  740176  77989.8  27572.7
   12037.8  742902  78285.8  27743.8
   12040  746966  78730.3  27963.4
   12042.5  750307  79082.2  28151.5
   12045  754825  79528.7  28362.1
   12047.6  758065  79826.7  28544.2
   12050.1  761341  80118.2  28706.9
   12052.6  765426  80495.3  28870.1
   12055.2  767615  80658.8  28914.8
   12057.7  770106  80880.8  28951
   12060.2  776875  81543.4  29169.8
   12062.8  782526  82103.4  29396
   12065.3  786545  82505  29585.8
   12068.1  790252  82872.1  29793.1
   12070.7  793693  83251.6  29961.9
   12073.2  798920  83825.7  30154.2
   12076.1  803420  84368.3  30316.1
   12078.6  807777  84885.4  30463.5
   12081.5  809806  85223  30550.4
   12084.3  815145  85922.1  30776.8
   12086.9  819662  86537.8  30998.8
   12089.7  824477  87248.9  31266.2
   12092.6  828609  87899.5  31574.2
   12095.5  833131  88602.6  31943.7
   12098.3  836349  89185.3  32269.7
   12101.2  840683  89905.5  32658.2
   12104.1  845251  90655.2  33038.3
   12107  849774  91392.3  33408.8
   12109.8  852893  91988  33720.9
   12112.7  857261  92735.2  34111.5
   12115.9  863057  93604.9  34584.7
   12118.8  868868  94459.1  35008.3
   12121.6  872335  95030.9  35358.5
   12124.9  878047  95859  35801.2
   12127.7  880926  96327.8  36077.4
   12130.9  886615  97091  36451.1
   12133.8  891443  97733.7  36754.3
   12137  893973  98132  36942.1
   12140.2  900760  98957.8  37254.4
   12143.4  905169  99520  37455.2
   12146.3  910758  100179  37692.5
   12149.6  914196  100609  37864.3
   12152.8  918492  101149  38079.7
   12156  924212  101824  38356.6
   12159.2  929450  102447  38615
   12162.4  934918  103099  38907.9
   12165.6  937831  103493  39116.4
   12169.2  942944  104148  39436.3
   12172.4  949624  104979  39836.8
   12175.6  954126  105606  40144.8
   12178.9  959440  106339  40502.3
   12182.4  963449  106920  40791.4
   12185.7  969700  107822  41177.9
   12189.2  974194  108530  41512
   12192.5  978496  109207  41863.6
   12196  984301  110091  42327.7
   12199.6  987687  110708  42662.3
   12202.8  994503  111715  43145.5
   12206.4  998303  112422  43524.1
   12210  1.00339e+06  113254  43945.3
   12213.5  1.00917e+06  114183  44443.1
   12217.1  1.01288e+06  114861  44872.3
   12220.7  1.0189e+06  115818  45396.1
   12224.3  1.02406e+06  116645  45884.3
   12227.8  1.02949e+06  117528  46379.1
   12231.4  1.03413e+06  118292  46788.4
   12235  1.03938e+06  119152  47230.2
   12238.9  1.04325e+06  119864  47644.6
   12242.5  1.05012e+06  120842  48127.4
   12246.1  1.05454e+06  121548  48499.8
   12250  1.06083e+06  122479  48944.7
   12253.6  1.06521e+06  123186  49243.2
   12257.5  1.06921e+06  123849  49522.1
   12261.2  1.07514e+06  124698  49905.6
   12265.1  1.0812e+06  125600  50314.5
   12269  1.08334e+06  126038  50568.1
   12272.6  1.0906e+06  127047  51065.1
   12276.6  1.09739e+06  128002  51528.6
   12280.5  1.10056e+06  128532  51817.7
   12284.4  1.10688e+06  129461  52281.3
   12288.4  1.1135e+06  130416  52784.3
   12292.3  1.11945e+06  131314  53277
   12296.3  1.12462e+06  132120  53751.1
   12300.2  1.12884e+06  132836  54185.8
   12304.2  1.13466e+06  133738  54714.9
   12308.2  1.14006e+06  134593  55191.6
   12312.1  1.14555e+06  135491  55691.9
   12316.1  1.1497e+06  136248  56145.6
   12320.4  1.1547e+06  137130  56674.9
   12324.3  1.15909e+06  137935  57145.6
   12328.7  1.1656e+06  139017  57753.9
   12332.6  1.17127e+06  139995  58308.8
   12336.6  1.17676e+06  140936  58868.1
   12340.9  1.18238e+06  141939  59441.9
   12345.2  1.18752e+06  142879  60007.3
   12349.2  1.19243e+06  143776  60509.2
   12353.5  1.19882e+06  144878  61105.6
   12357.9  1.20304e+06  145735  61599.6
   12362.2  1.20873e+06  146742  62167
   12366.2  1.21426e+06  147700  62698.9
   12370.5  1.22021e+06  148748  63288.4
   12374.9  1.22496e+06  149630  63815.4
   12379.2  1.22955e+06  150493  64327
   12383.5  1.23511e+06  151472  64852
   12387.9  1.23924e+06  152247  65297.6
   12392.6  1.24442e+06  153223  65848.7
   12396.9  1.24892e+06  154005  66310.3
   12401.3  1.25516e+06  155070  66890.4
   12405.6  1.26061e+06  155998  67409.1
   12410.3  1.26532e+06  156883  67944.2
   12414.7  1.27087e+06  157805  68468.9
   12419  1.27693e+06  158867  69080.1
   12423.8  1.2815e+06  159722  69630.8
   12428.1  1.28719e+06  160699  70237
   12432.8  1.29198e+06  161631  70814.8
   12437.6  1.29701e+06  162577  71439.1
   12441.9  1.30341e+06  163667  72101.9
   12446.7  1.30782e+06  164551  72714.2
   12451.4  1.31226e+06  165458  73320.1
   12456.1  1.32009e+06  166813  74131.4
   12460.5  1.32244e+06  167444  74591.3
   12465.3  1.32779e+06  168469  75272.7
   12470  1.33253e+06  169440  75898.6
   12474.7  1.33854e+06  170568  76620.1
   12479.5  1.34323e+06  171561  77269
   12484.2  1.34956e+06  172744  78000.4
   12489  1.35548e+06  173878  78682.4
   12494.1  1.35891e+06  174718  79250
   12498.9  1.36325e+06  175672  79852
   12503.6  1.36846e+06  176726  80519.6
   12508.4  1.3744e+06  177900  81234.6
   12513.5  1.37795e+06  178784  81833.2
   12518.3  1.38539e+06  180129  82627.3
   12523.4  1.39111e+06  181257  83364.9
   12528.2  1.39494e+06  182127  83964.1
   12533.4  1.39946e+06  183140  84656.7
   12538.1  1.4024e+06  183878  85167.9
   12543.3  1.40968e+06  185248  86020.7
   12548.1  1.41635e+06  186480  86794.9
   12553.2  1.4201e+06  187339  87405.6
   12558.4  1.42368e+06  188213  88024.9
   12563.6  1.4283e+06  189234  88727.7
   12568.7  1.43224e+06  190131  89387
   12573.5  1.43826e+06  191311  90165.8
   12578.7  1.44371e+06  192463  90960.1
   12583.9  1.44779e+06  193384  91636
   12589.1  1.45404e+06  194631  92491.4
   12594.2  1.4575e+06  195500  93172.3
   12599.4  1.46383e+06  196771  94030.7
   12605  1.46509e+06  197402  94641.7
   12610.2  1.47028e+06  198531  95450.1
   12615.4  1.47424e+06  199496  96155.1
   12620.6  1.48036e+06  200750  97051.6
   12625.8  1.48698e+06  202113  97956.6
   12631.3  1.49163e+06  203187  98763.1
   12636.6  1.49582e+06  204232  99524.2
   12642.1  1.49849e+06  205079  100203
   12647.4  1.50346e+06  206234  101026
   12652.9  1.5079e+06  207321  101830
   12658.2  1.51301e+06  208483  102651
   12663.8  1.51774e+06  209628  103475
   12669  1.5212e+06  210555  104190
   12674.6  1.52587e+06  211682  105016
   12680.2  1.53155e+06  212965  105917
   12685.8  1.53352e+06  213728  106547
   12691.1  1.53847e+06  214897  107421
   12696.7  1.54356e+06  216084  108287
   12702.3  1.54588e+06  216897  108987
   12708  1.55052e+06  218059  109849
   12713.6  1.55555e+06  219217  110744
   12719.3  1.56125e+06  220502  111704
   12724.9  1.56427e+06  221452  112477
   12730.6  1.56946e+06  222690  113421
   12736.2  1.57245e+06  223611  114224
   12741.9  1.57681e+06  224683  115085
   12747.9  1.58028e+06  225726  115979
   12753.6  1.58477e+06  226865  116875
   12759.2  1.58887e+06  227958  117783
   12764.9  1.59186e+06  228889  118570
   12771  1.59548e+06  229929  119473
   12776.7  1.60023e+06  231182  120468
   12782.4  1.60461e+06  232314  121361
   12788.4  1.61038e+06  233764  122501
   12794.1  1.61333e+06  234678  123329
   12800.2  1.61698e+06  235809  124281
   12806.3  1.61947e+06  236727  125107
   12812  1.6248e+06  238064  126150
   12818.1  1.6274e+06  239003  127011
   12824.2  1.62754e+06  239588  127655
   12829.9  1.63204e+06  240819  128645
   12836  1.63551e+06  241944  129600
   12842.1  1.64178e+06  243432  130724
   12848.2  1.64656e+06  244693  131795
   12854.4  1.64949e+06  245733  132704
   12860.5  1.65005e+06  246376  133437
   12866.3  1.65395e+06  247516  134415
   12872.4  1.65587e+06  248394  135258
   12878.6  1.66149e+06  249834  136434
   12885.1  1.66196e+06  250495  137205