File: data/ass_10K_scan3.xdi
# XDI/1.0
# Column.1: energy eV
# Column.2: i0
# Column.3: itrans
# Column.4: irefer
# Beamline.name: SSRL 2-3
# Beamline.notes: vert slits = 0.6mm
# Detector.I0: N2 15cm
# Detector.I1: Ar 30cm
# Detector.I2: Ar 15cm
# Element.edge: K
# Element.symbol: As
# Mono.d_spacing: 3.13550
# Mono.name: Si(111)
# Mono.notes: unfocused, detuned 75%, clockwise at E=12000eV
# Sample.formula: AsS
# Sample.name: AsS (realgar)
# Sample.prep: powder on tape (5 layers)
# Sample.reference: GaAs powder
# Sample.temperature: 10K
# Scan.start_time: 1997-04-19 17:37:58
# ///
#    Note: mono d_spacing is nominal!
#     exafs to K16, GaAs in IR
#     413  E XMU XMUR I0
#-------------
#   energy   i0   itrans  irefer
   11634.9  540319  71348.5  29315
   11644.9  537406  71285.5  29461
   11654.9  535418  71334.5  29651
   11665  532638  71269.5  29811
   11675.1  530754  71345.5  30013
   11684.9  527046  71154.5  30107
   11695  523989  71040.5  30236
   11705.1  520206  70843.5  30333
   11714.9  518180  70890.5  30521
   11725.1  516167  70890.5  30702
   11735  514044  70908.5  30879
   11744.9  510964  70774.5  31000
   11755.1  508192  70696.5  31136
   11765  505541  70608.5  31275
   11775  502913  70518.5  31416
   11784.9  500761  70482.5  31576
   11794.9  498293  70397.5  31717
   11804.9  495766  70279.5  31828
   11814.9  492864  70059.5  31897
   11824.9  490578  69889.5  31983
   11835  488525  69618.5  32010
   11845.1  486645  69009.5  31813
   11845.4  485901  68890.5  31769
   11846  485383  68761.5  31714
   11846.6  485455  68741.5  31710
   11846.9  485690  68751.5  31708
   11847.5  486351  68787.5  31722
   11848.1  486116  68699.5  31690
   11848.4  485561  68592.5  31638
   11849  486165  68616.5  31647
   11849.6  485412  68426.5  31557
   11849.9  484703  68301.5  31497
   11850.6  484938  68246.5  31462
   11850.9  485234  68242.5  31467
   11851.5  485198  68146.5  31405
   11852.1  484120  67864.5  31283
   11852.4  483877  67781.5  31234
   11853  484624  67768.5  31221
   11853.6  484768  67622.5  31155
   11853.9  484846  67555.5  31110
   11854.5  484469  67337.5  30995
   11855.1  484903  67184.5  30912
   11855.4  485226  67143.5  30891
   11856.1  484831  66843.5  30725
   11856.4  484515  66660.5  30625
   11857  483933  66293.5  30436
   11857.6  485047  66086.5  30301
   11857.9  484137  65813.5  30166
   11858.5  483056  65214.5  29849
   11859.1  483144  64714.5  29571
   11859.4  483598  64532.5  29459
   11860  483088  63792.5  29057
   11860.6  482123  62883.5  28562
   11861  482272  62523.5  28362
   11861.6  482183  61436.5  27752
   11861.9  481953  60779.5  27396
   11862.5  481131  59146.5  26517
   11863.1  480630  57159.5  25426
   11863.4  480569  56209.5  24908
   11864  480404  53258.5  23316
   11864.6  478821  49244.5  21209
   11864.9  478716  47071.5  20080
   11865.5  479120  41728.5  17384
   11865.9  478923  39339.5  16216
   11866.5  478433  32689.5  13053
   11867.1  478419  25600.5  9822
   11867.4  479323  22300.5  8358
   11868  479239  16411.5  5831
   11868.6  478910  11848.5  3911
   11868.9  478671  10549.5  3365
   11869.5  479307  8628.5  2508
   11870.1  478927  8713.5  2382
   11870.5  477994  9242.5  2495
   11871.1  477311  11246.5  3014
   11871.4  478081  12282.5  3296
   11872  478099  15239.5  4126
   11872.6  477314  17886.5  4889
   11872.9  476919  18989.5  5216
   11873.5  476630  20869.5  5790.01
   11874.1  476734  21928.5  6146
   11874.4  476321  22126.5  6228
   11875.1  476163  22178.5  6319
   11875.4  476579  22056.5  6326
   11876  477178  21609.5  6296
   11876.6  476678  21142.5  6268
   11876.9  475942  20972.5  6261
   11877.5  476470  20796.5  6319
   11878.1  476888  20827.5  6422
   11878.4  476806  20883.5  6482
   11879  476047  21039.5  6590
   11879.4  476369  21149.5  6644
   11880  476518  21411.5  6780
   11880.6  475916  21611.5  6877
   11880.9  475252  21671.5  6913
   11881.5  475773  21874.5  7000
   11882.1  476227  22053.5  7081
   11882.4  475632  22076.5  7093.01
   11883  474983  22187.5  7138
   11883.7  475666  22352.5  7194
   11884  475523  22401.5  7204
   11884.6  474363  22477.5  7223
   11884.9  474331  22521.5  7241
   11885.5  474078  22619.5  7271
   11886.1  473895  22713.5  7305
   11886.4  473691  22759.5  7322
   11887  473613  22858.5  7366
   11887.6  474260  22989.5  7410
   11888  474627  23048.5  7430
   11888.6  474507  23157.5  7474.01
   11888.9  474093  23194.5  7484
   11889.5  474344  23338.5  7529
   11890.1  474541  23482.5  7573
   11890.4  474795  23554.5  7593
   11891  474410  23688.5  7637
   11891.6  473926  23809.5  7669
   11892  474126  23892.5  7691
   11892.6  474174  24046.5  7742
   11892.9  473766  24080.5  7756
   11893.5  473515  24229.5  7812
   11894.1  473541  24375.5  7874
   11894.4  473398  24438.5  7899
   11895  473660  24597.5  7978
   11895.6  473124  24712.3  8044.77
   11896.3  473209  24844.5  8115.04
   11896.9  473579  24990.3  8187.84
   11897.5  472714  25069.6  8232.15
   11898.4  473116  25260.4  8305.99
   11899  473419  25368.6  8344.35
   11899.7  473594  25472.4  8372.23
   11900.6  473166  25566.8  8385.62
   11901.2  473512  25644.6  8405.54
   11902.1  473764  25731.9  8422.97
   11903  474290  25809.7  8450.93
   11903.7  474566  25841.1  8458.4
   11904.6  474901  25865.9  8478.4
   11905.5  475413  25883.3  8493.9
   11906.4  475755  25873.1  8496.94
   11907.4  476165  25844.5  8501.48
   11908.3  476608  25804.4  8499.56
   11909.2  477915  25782.8  8498.14
   11910.1  478239  25698.7  8467.26
   11911.1  479327  25621  8444.88
   11912.3  479927  25447.9  8373.03
   11913.2  480707  25327.4  8325.7
   11914.2  481420  25184.3  8268.89
   11915.4  482244  24983.7  8199.6
   11916.3  482972  24841.7  8161.82
   11917.6  483590  24626.1  8108.57
   11918.8  484454  24448.1  8087.83
   11919.7  485824  24353.6  8085.62
   11921  487232  24230.5  8081.92
   11922.2  488265  24116  8068.74
   11923.4  489078  24018  8049.08
   11924.7  490499  23971.5  8045.95
   11925.9  491106  23920.5  8038.32
   11927.1  491960  23907  8037.22
   11928.4  493010  23925  8040.65
   11929.6  494206  23965.5  8050.58
   11930.9  496178  24057.6  8078.04
   11932.4  497347  24159.1  8089.02
   11933.7  498664  24301.1  8116.52
   11934.9  499565  24447.7  8140.54
   11936.4  500710  24679.8  8194.07
   11938  502814  24979.3  8274.14
   11939.2  503984  25214.4  8342.7
   11940.8  504913  25513  8452.79
   11942.3  504946  25773.1  8552.41
   11943.6  506130  26029.7  8653.55
   11945.1  508904  26442.8  8802.2
   11946.7  511461  26818.4  8948.37
   11948.2  514263  27205.6  9092.07
   11949.8  515750  27483.2  9205.28
   11951.3  516897  27722.3  9298.01
   11952.9  518458  27946  9391.26
   11954.8  521107  28206.1  9499.03
   11956.3  522942  28374.8  9584.31
   11957.9  524500  28498  9652.13
   11959.7  525801  28577.7  9686.45
   11961.3  528023  28682.8  9727.3
   11963.2  529287  28708.5  9729.67
   11964.7  531817  28796.8  9750.55
   11966.6  534224  28840.5  9774.96
   11968.5  536694  28889.7  9816.88
   11970  538336  28897.4  9856.33
   11971.9  539954  28887.6  9918.3
   11973.8  541479  28862.4  9970.77
   11975.6  543643  28867.6  10013.8
   11977.5  545741  28871.4  10053.3
   11979.4  548403  28908.7  10082.3
   11981.3  550099  28893.4  10079.9
   11983.1  552190  28908.7  10094
   11985  553716  28890.5  10080.6
   11987.2  554949  28854.8  10050.7
   11989.1  557311  28900.6  10044.3
   11991.3  561670  29047.9  10062.5
   11993.2  563704  29113.7  10053.2
   11995.3  566786  29250.1  10056.4
   11997.2  568635  29351.9  10067.1
   11999.4  570805  29506.2  10098.3
   12001.3  573606  29721.1  10178.1
   12003.5  576910  30014.5  10291.4
   12005.7  579232  30294.3  10419.1
   12007.9  582139  30635.7  10557.5
   12010.1  583350  30921.6  10677.3
   12012.3  584632  31223  10814.6
   12014.5  588412  31675.9  11003.5
   12016.7  592596  32152.3  11204.9
   12018.9  595358  32531.2  11365.8
   12021.1  598158  32903.6  11524.2
   12023.6  601246  33279.5  11710.2
   12025.8  603390  33543  11840.7
   12028  607108  33825.9  11965.7
   12030.5  609905  34049.4  12076.2
   12032.7  611810  34210.3  12165.2
   12035.3  615976  34451.8  12278.7
   12037.8  618355  34574.8  12353.8
   12040  621379  34734.2  12438.4
   12042.5  625158  34900.2  12525.5
   12045  627211  34948.7  12566.1
   12047.6  630992  35092.7  12643.3
   12050.1  634378  35210.2  12718.9
   12052.6  637147  35292.3  12753.1
   12055.2  637764  35263.8  12733.8
   12057.7  640379  35350.8  12751
   12060.2  646711  35649.4  12846.8
   12062.8  650000  35798.4  12911
   12065.3  654334  36008  13018.8
   12068.1  656414  36101  13077.1
   12070.7  660817  36357.6  13183.9
   12073.2  663417  36518.7  13233.2
   12076.1  668366  36835.3  13331.1
   12078.6  669813  36969.4  13363.5
   12081.5  675616  37370  13492.4
   12084.3  678105  37609.1  13572.8
   12086.9  681676  37899.8  13678.7
   12089.7  685557  38243.9  13817.2
   12092.6  689068  38568.5  13966.2
   12095.5  692573  38897.7  14134.7
   12098.3  694564  39144.3  14273.7
   12101.2  698800  39533.5  14467.2
   12104.1  702391  39885.1  14649.2
   12107  707014  40297.3  14841.8
   12109.8  709197  40578  14983.9
   12112.7  713929  41002.2  15196.5
   12115.9  717428  41367.9  15390.6
   12118.8  722414  41782.1  15600.3
   12121.6  725560  42091.8  15778.5
   12124.9  729654  42463  15974.2
   12127.7  731681  42671.8  16100.4
   12130.9  738117  43142  16313.1
   12133.8  740379  43351.8  16414.3
   12137  743016  43578  16520.1
   12140.2  747094  43876.8  16638.4
   12143.4  752761  44249  16767.2
   12146.3  755236  44425.8  16829.5
   12149.6  760730  44755.1  16956.4
   12152.8  764977  45009.9  17054.7
   12156  768628  45223.2  17151.6
   12159.2  773123  45498  17265
   12162.4  776451  45697.3  17356.9
   12165.6  780257  45933.2  17480.4
   12169.2  782626  46112.5  17580.3
   12172.4  788642  46507.3  17770.8
   12175.6  791642  46735.7  17888.8
   12178.9  796624  47089.5  18062.3
   12182.4  800870  47437.9  18217.4
   12185.7  804180  47747.7  18368.9
   12189.2  810158  48236.1  18590
   12192.5  812803  48521  18745.6
   12196  817048  48941.4  18955.7
   12199.6  821239  49345.3  19159.3
   12202.8  826116  49799.7  19369.5
   12206.4  830247  50216.6  19584.1
   12210  832327  50515  19755.3
   12213.5  837723  51006  20003.1
   12217.1  840495  51330.4  20199.3
   12220.7  845301  51787.4  20444
   12224.3  849209  52175.9  20672.3
   12227.8  854938  52650.8  20930.1
   12231.4  858406  53001.3  21110.4
   12235  861979  53343.2  21299.2
   12238.9  865328  53688.8  21492.6
   12242.5  869942  54090.7  21697.4
   12246.1  874421  54495.2  21894.8
   12250  875728  54689.2  22007.7
   12253.6  882875  55252.7  22244.2
   12257.5  885404  55524.8  22356.1
   12261.2  889305  55878.3  22520.6
   12265.1  894836  56335.4  22731.6
   12269  897443  56615.9  22888
   12272.6  901994  56990.9  23071.1
   12276.6  906709  57398.6  23275.6
   12280.5  911523  57808.6  23478.7
   12284.4  913991  58071.2  23627.3
   12288.4  919236  58507.2  23854.3
   12292.3  925045  58986.9  24120
   12296.3  928652  59317  24313.1
   12300.2  931468  59610.6  24497.8
   12304.2  937365  60101.7  24763.9
   12308.2  941354  60468.3  24986.6
   12312.1  943711  60758.5  25153.9
   12316.1  950296  61328.1  25452.6
   12320.4  954381  61747.2  25699.9
   12324.3  958831  62184.9  25957.6
   12328.7  962490  62600  26192.9
   12332.6  965503  62969.8  26426.8
   12336.6  971707  63542.9  26738.1
   12340.9  975580  63991.6  27007.9
   12345.2  980074  64486.8  27283.3
   12349.2  983579  64899.5  27522.2
   12353.5  988116  65411.7  27792.6
   12357.9  992758  65929.4  28079.5
   12362.2  997518  66453.6  28360
   12366.2  1.00296e+06  67005.4  28655.9
   12370.5  1.00572e+06  67385.6  28888.4
   12374.9  1.00933e+06  67825.4  29145.4
   12379.2  1.01484e+06  68371.6  29439
   12383.5  1.01916e+06  68847.4  29698
   12387.9  1.02353e+06  69294.7  29936.6
   12392.6  1.02507e+06  69565.5  30114.7
   12396.9  1.03216e+06  70208.7  30450.3
   12401.3  1.03642e+06  70642.6  30701.4
   12405.6  1.04114e+06  71119.9  30974
   12410.3  1.04528e+06  71555.7  31228.2
   12414.7  1.04682e+06  71808  31406.9
   12419  1.05171e+06  72279.8  31688.1
   12423.8  1.05602e+06  72761.1  31975.8
   12428.1  1.06096e+06  73255  32265
   12432.8  1.06584e+06  73768.3  32575.8
   12437.6  1.06755e+06  74064.2  32802.1
   12441.9  1.07173e+06  74522.6  33096.9
   12446.7  1.07412e+06  74878.5  33346.2
   12451.4  1.07817e+06  75357.8  33664
   12456.1  1.08323e+06  75915.7  34009.4
   12460.5  1.0855e+06  76268.1  34252.3
   12465.3  1.08822e+06  76677.1  34526.7
   12470  1.09285e+06  77224.4  34860.6
   12474.7  1.09684e+06  77711.4  35179
   12479.5  1.10118e+06  78235.8  35518
   12484.2  1.10692e+06  78870.7  35893.5
   12489  1.11026e+06  79324.1  36198.4
   12494.1  1.11413e+06  79831.1  36503
   12498.9  1.11884e+06  80405.5  36846
   12503.6  1.1236e+06  80968.5  37179.5
   12508.4  1.12697e+06  81455  37492.6
   12513.5  1.12908e+06  81844  37769.2
   12518.3  1.1352e+06  82532.5  38167.3
   12523.4  1.13667e+06  82868.5  38421
   12528.2  1.14022e+06  83375  38742.1
   12533.4  1.14449e+06  83928  39092.8
   12538.1  1.15161e+06  84678.6  39526
   12543.3  1.15351e+06  85038.6  39789.7
   12548.1  1.15878e+06  85649.1  40166.9
   12553.2  1.16245e+06  86164.1  40517.6
   12558.4  1.16736e+06  86761.7  40897.9
   12563.6  1.17019e+06  87185.7  41207.7
   12568.7  1.17475e+06  87743.4  41580
   12573.5  1.18111e+06  88427.4  42005.8
   12578.7  1.1841e+06  88883  42344.2
   12583.9  1.18834e+06  89424.1  42701
   12589.1  1.19091e+06  89843.6  43021.4
   12594.2  1.19233e+06  90178.8  43306.3
   12599.4  1.19764e+06  90822.4  43739.7
   12605  1.19941e+06  91193.5  44069.6
   12610.2  1.2059e+06  91928.2  44541.1
   12615.4  1.20754e+06  92312.2  44846.1
   12620.6  1.21452e+06  93110.9  45358.6
   12625.8  1.22058e+06  93844.1  45840.6
   12631.3  1.22692e+06  94616.7  46345.1
   12636.6  1.22885e+06  95040.9  46673.2
   12642.1  1.23448e+06  95774.6  47160.8
   12647.4  1.24064e+06  96542.8  47664.9
   12652.9  1.24498e+06  97196.5  48102.5
   12658.2  1.246e+06  97563.7  48403.6
   12663.8  1.25183e+06  98281.3  48891.3
   12669  1.25468e+06  98811.6  49264.5
   12674.6  1.25969e+06  99517.3  49761.2
   12680.2  1.26261e+06  100056  50149.4
   12685.8  1.26328e+06  100409  50458.1
   12691.1  1.26712e+06  100980  50869.3
   12696.7  1.27311e+06  101747  51399.1
   12702.3  1.27574e+06  102260  51801.4
   12708  1.28034e+06  102908  52275.2
   12713.6  1.28221e+06  103369  52645.5
   12719.3  1.28336e+06  103727  52969.4
   12724.9  1.28785e+06  104393  53456.7
   12730.6  1.29063e+06  104902  53875.6
   12736.2  1.29073e+06  105227  54187
   12741.9  1.29379e+06  105766  54610.9
   12747.9  1.29777e+06  106410  55113.4
   12753.6  1.30049e+06  106933  55528.3
   12759.2  1.30239e+06  107391  55929.9
   12764.9  1.30477e+06  107869  56344.9
   12771  1.30887e+06  108536  56851.4
   12776.7  1.31217e+06  109104  57316.4
   12782.4  1.31458e+06  109607  57727
   12788.4  1.31816e+06  110246  58221.1
   12794.1  1.31923e+06  110640  58594.7
   12800.2  1.32218e+06  111229  59072.8
   12806.3  1.32086e+06  111466  59363.5
   12812  1.32544e+06  112194  59890.6
   12818.1  1.32626e+06  112595  60277.3
   12824.2  1.32676e+06  112995  60657.5
   12829.9  1.32974e+06  113576  61129.2
   12836  1.33267e+06  114175  61622.4
   12842.1  1.33277e+06  114527  61971.2
   12848.2  1.33559e+06  115135  62484.5
   12854.4  1.33458e+06  115382  62795.3
   12860.5  1.33691e+06  115958  63283.6
   12866.3  1.34241e+06  116756  63889.4
   12872.4  1.34253e+06  117106  64254.7
   12878.6  1.34497e+06  117663  64726.6
   12885.1  1.34476e+06  118018  65128