File: data/cu_metal_rt.xdi
# XDI/1.0 GSE/1.0
# Column.1: energy eV
# Column.2: i0
# Column.3: itrans
# Column.4: mutrans
# Scan.edge: K
# Scan.element: Cu
# Scan.edge_energy: 8980.0
# Mono.name: Si 111
# Mono.d_spacing: 3.13553
# Beamline.name: APS 13ID
# Beamline.collimation: none
# Beamline.focusing: yes
# Beamline.harmonic_rejection: rhodium-coated mirror
# Facility.energy: 7.00 GeV
# Facility.xray_source: APS Undulator A
# Scan.start_time: 2001-06-26T22:27:31
# Detector.I0: 10cm  N2
# Detector.I1: 10cm  N2
# Sample.name: Cu
# Sample.prep: Cu metal foil
# GSE.EXTRA:  config 1
# ///
# Cu foil Room Temperature
#----
# energy i0 itrans mutrans
  8779.0  149013.7  550643  -1.30705
  8789.0  144864.7  531876  -1.30061
  8799.0  132978.7  489591  -1.30338
  8809.0  125444.7  463051  -1.30597
  8819.0  121324.7  449969  -1.31071
  8829.0  119447.7  444386  -1.31382
  8839.0  119100.7  440176  -1.30721
  8849.0  117707.7  440448  -1.31959
  8859.0  117754.7  442302  -1.32339
  8869.0  117428.7  441944  -1.32535
  8879.0  117383.7  442810  -1.327693
  8889.0  117185.7  443658  -1.33129
  8899.0  117058.7  444213  -1.33363
  8909.0  117276.7  443655  -1.33051
  8919.0  117332.7  447444  -1.33854
  8929.0  117332.7  448243  -1.34032
  8939.0  117756.7  450590  -1.34194
  8949.0  117199.7  445515  -1.33535
  8959.0  117458.7  448318  -1.33942
  8959.5  118720.7  452987  -1.33909
  8960.0  119008.7  453897  -1.33867
  8960.5  120520.7  459458  -1.33823
  8961.0  121659.7  463407  -1.33738
  8961.5  121341.7  461871  -1.33668
  8962.0  121394.7  462122  -1.33678
  8962.5  121094.7  460800  -1.33639
  8963.0  120769.7  459282  -1.33578
  8963.5  121015.7  460053  -1.33542
  8964.0  120395.7  457426  -1.33483
  8964.5  120179.7  456370  -1.334316
  8965.0  120917.7  458901  -1.33372
  8965.5  121353.7  460121  -1.33278
  8966.0  120788.7  457767  -1.33232
  8966.5  120845.7  457111  -1.33041
  8967.0  120809.7  456945  -1.33035
  8967.5  120816.7  456721  -1.3298
  8968.0  121040.7  456712  -1.32793
  8968.5  120821.7  455636  -1.32738
  8969.0  120986.7  455646  -1.32604
  8969.5  121289.7  456040  -1.3244
  8970.0  121113.7  454700  -1.32291
  8970.5  120800.7  452979  -1.3217
  8971.0  120024.7  449150  -1.31966
  8971.5  120379.7  449521  -1.31753
  8972.0  120769.7  449996  -1.31535
  8972.5  120602.7  448130  -1.31258
  8973.0  120328.7  445849  -1.30975
  8973.5  120405.7  444572  -1.30625
  8974.0  120519.7  443087  -1.30195
  8974.5  120702.7  442108  -1.29822
  8975.0  120678.7  439452  -1.2924
  8975.5  120861.7  437344  -1.28607
  8976.0  120656.7  433022  -1.27784
  8976.5  120856.7  429645  -1.268354
  8977.0  120421.7  422855  -1.25603
  8977.5  120825.7  417044  -1.238843
  8978.0  120630.7  407292  -1.2168
  8978.5  120845.7  393860  -1.18148
  8979.0  120832.7  373749  -1.12918
  8979.5  121033.7  341663  -1.03776
  8980.0  120305.7  285470  -0.864101
  8980.5  121037.7  224434  -0.61748
  8981.0  120519.7  169329  -0.340031
  8981.5  122539.7  144339  -0.16373
  8982.0  121788.7  130447  -0.0686802
  8982.5  121415.7  125296  -0.0314595
  8983.0  121266.7  125935  -0.0377744
  8983.5  121720.7  130781  -0.0717959
  8984.0  120930.7  134301  -0.104867
  8984.5  120764.7  136416  -0.121866
  8985.0  120680.7  134201  -0.106191
  8985.5  121074.7  128945  -0.062979
  8986.0  121052.7  120751  0.00249459
  8986.5  120823.7  114286  0.0556275
  8987.0  120819.7  108683  0.105863
  8987.5  120508.7  103269  0.154384
  8988.0  120647.7  97879.1  0.209142
  8988.5  120841.7  92466.1  0.267639
  8989.0  121405.7  86074.1  0.343929
  8989.5  121141.7  78746.1  0.430732
  8990.0  121046.7  70957.1  0.534101
  8990.5  121244.7  63712.1  0.643436
  8991.0  120832.7  56482.1  0.760483
  8991.5  120815.7  49455.1  0.893201
  8992.0  121341.7  44121.1  1.01167
  8992.5  121202.7  39260.1  1.12726
  8993.0  120950.7  34973.1  1.2408
  8993.5  121165.7  31819.1  1.33709
  8994.0  120954.7  29573.1  1.40855
  8994.5  121145.7  28221.1  1.456924
  8995.0  121337.7  27885.1  1.47049
  8995.5  120813.7  28091.1  1.4588
  8996.0  121141.7  29094.1  1.42643
  8996.5  121052.7  30362.1  1.38303
  8997.0  120941.7  31979.1  1.330226
  8997.5  121002.7  33461.1  1.28543
  8998.0  121188.7  34974.1  1.242741
  8998.5  121138.7  36310.1  1.20484
  8999.0  120996.7  37194.1  1.17961
  8999.5  120960.7  37723.1  1.16519
  9000.0  121314.7  37878.1  1.16401
  9000.5  121168.7  37286.1  1.17856
  9001.0  121360.7  36173.1  1.21045
  9001.5  120946.7  34370.1  1.258163
  9002.0  120951.7  32474.1  1.31495
  9002.5  120887.7  30601.1  1.37383
  9003.0  120998.7  28755.1  1.43696
  9003.5  121373.7  27509.1  1.48436
  9004.0  120709.7  26687.1  1.50921
  9004.984  121041.7  27368.1  1.486757
  9005.988  120887.7  29580.1  1.40776
  9007.012  120692.7  32480.1  1.31262
  9008.053  120984.7  34952.1  1.24169
  9009.114  120672.7  36846.1  1.18633
  9010.193  120735.7  39018.1  1.12958
  9011.293  120772.7  41039.1  1.079385
  9012.41  120715.7  41985.1  1.05612
  9013.548  120854.7  41895.1  1.05942
  9014.703  120629.7  41188.1  1.07458
  9015.878  121092.7  40374.1  1.09837
  9017.072  120875.7  38874.1  1.13443
  9018.285  120788.7  36969.1  1.18396
  9019.518  120999.7  34899.1  1.243327
  9020.769  120541.7  32760.1  1.30278
  9022.038  120685.7  31044.1  1.35778
  9023.327  120883.7  29564.1  1.40827
  9024.636  120691.7  28068.1  1.45861
  9025.963  120725.7  27100.1  1.49398
  9027.309  120616.7  26972.1  1.49781
  9028.674  120830.7  27971.1  1.46322
  9030.059  120639.7  29626.1  1.40415
  9031.461  120397.7  31588.1  1.33802
  9032.884  120036.7  33733.1  1.269318
  9034.325  121377.7  35921.1  1.21758
  9035.785  120948.7  36969.1  1.18528
  9037.265  121082.7  37616.1  1.16904
  9038.763  120756.7  37556.1  1.167942
  9040.28  121289.7  37212.1  1.18155
  9041.816  120826.7  36312.1  1.20221
  9043.372  120724.7  35797.1  1.21565
  9044.946  120299.7  35704.1  1.21472
  9046.54  120652.7  36149.1  1.20526
  9048.152  120559.7  36016.1  1.208179
  9049.783  120452.7  35302.1  1.22731
  9051.434  120443.7  34485.1  1.25066
  9053.104  120628.7  34146.1  1.26207
  9054.792  120364.7  34082.1  1.261754
  9056.5  120251.7  33925.1  1.26543
  9058.227  120521.7  33383.1  1.28378
  9059.972  120447.7  32363.1  1.3142
  9061.736  120426.7  31464.1  1.34219
  9063.521  120317.7  30803.1  1.36252
  9065.322  120372.7  30307.1  1.37921
  9067.145  120543.7  29727.1  1.39995
  9068.985  119794.7  28765.1  1.42662
  9070.845  120186.7  27985.1  1.45737
  9072.724  120213.7  27425.1  1.47781
  9074.621  120487.7  27545.1  1.475723
  9076.538  120588.7  28291.1  1.44984
  9078.474  120579.7  29645.1  1.40301
  9080.429  120842.7  31326.1  1.35004
  9082.402  120501.7  32743.1  1.30297
  9084.396  120409.7  34085.1  1.26204
  9086.407  120267.7  35323.1  1.225183
  9088.438  120150.7  36140.1  1.20134
  9090.488  120250.7  36597.1  1.18961
  9092.557  120386.7  37604.1  1.163596
  9094.646  120571.7  39229.1  1.12283
  9096.752  120531.7  40824.1  1.08264
  9098.878  120450.7  41893.1  1.05612
  9101.023  120209.7  41889.1  1.05421
  9103.188  120404.7  41105.1  1.07473
  9105.37  120119.7  39534.1  1.11133
  9107.572  120080.7  37898.1  1.153263
  9109.794  120161.7  36531.1  1.19067
  9112.034  119914.7  35391.1  1.22032
  9114.293  120580.7  35045.1  1.23568
  9116.571  120440.7  34930.1  1.23781
  9118.868  120496.7  35055.1  1.2347
  9121.185  120120.7  34796.1  1.23899
  9123.52  120422.7  34006.1  1.26447
  9125.874  120278.7  32222.1  1.317159
  9128.247  119965.7  29872.1  1.39028
  9130.64  120456.7  28476.1  1.44223
  9133.051  120415.7  27888.1  1.46275
  9135.481  120588.7  28156.1  1.45462
  9137.931  120311.7  28653.1  1.43482
  9140.399  120317.7  29501.1  1.40571
  9142.887  120547.7  30753.1  1.36605
  9145.393  120249.7  32463.1  1.30947
  9147.919  120056.7  34512.1  1.24665
  9150.463  120366.7  37183.1  1.17469
  9153.026  120206.7  39929.1  1.10211
  9155.609  120165.7  42802.1  1.03228
  9158.211  120626.7  45214.1  0.981292
  9160.831  120451.7  46148.1  0.959393
  9163.471  120273.7  45254.1  0.977477
  9166.129  120243.7  43181.1  1.02412
  9168.807  120444.7  40699.1  1.08498
  9171.504  118476.7  37884.1  1.14018
  9174.22  120845.7  37318.1  1.17504
  9176.954  121414.7  36823.1  1.19309
  9179.708  121351.7  36775.1  1.193872
  9182.48  121213.7  37082.1  1.18442
  9185.272  120590.7  37293.1  1.17359
  9188.083  120312.7  37325.1  1.17043
  9190.913  120539.7  37571.1  1.165744
  9193.762  119831.7  37718.1  1.15595
  9196.63  120077.7  38292.1  1.1429
  9199.517  119941.7  38309.1  1.14132
  9202.422  120308.7  37629.1  1.16228
  9205.348  120172.7  36100.1  1.20263
  9208.291  120270.7  34788.1  1.24047
  9211.254  119981.7  34205.1  1.25496
  9214.236  120286.7  34422.1  1.25118
  9217.237  120315.7  34809.1  1.24024
  9220.257  120255.7  35426.1  1.22217
  9223.296  120627.7  36669.1  1.19077
  9226.354  120288.7  38259.1  1.14551
  9229.432  120376.7  39999.1  1.101769
  9232.527  120443.7  41725.1  1.06008
  9235.643  119993.7  43011.1  1.025981
  9238.776  120132.7  43976.1  1.00495
  9241.93  119879.7  44116.1  0.999664
  9245.103  119841.7  43872.1  1.00489
  9248.293  120142.7  43733.1  1.010575
  9251.504  120114.7  43643.1  1.0124
  9254.732  120026.7  43544.1  1.01394
  9257.981  120260.7  43532.1  1.01616
  9261.248  120240.7  43308.1  1.02116
  9264.535  120126.7  42948.1  1.02855
  9267.84  120427.7  42632.1  1.03844
  9271.164  120157.7  42158.1  1.04738
  9274.508  120399.7  41921.1  1.05503
  9277.87  120169.7  41539.1  1.06227
  9281.252  120187.7  41438.1  1.06485
  9284.652  120351.7  41379.1  1.06764
  9288.071  120011.7  41165.1  1.07
  9291.51  120091.7  41074.1  1.07288
  9294.968  120182.7  41105.1  1.07288
  9298.444  120056.7  41011.1  1.07412
  9301.939  120384.7  41416.1  1.06702
  9305.454  119816.7  41831.1  1.052323
  9308.988  120268.7  42710.1  1.035293
  9312.541  120022.7  43585.1  1.01297
  9316.112  120292.7  44416.1  0.996326
  9319.703  120180.7  45080.1  0.980556
  9323.313  120233.7  45570.1  0.970186
  9326.941  119937.7  45658.1  0.965791
  9330.589  120382.7  45958.1  0.962946
  9334.256  120584.7  46387.1  0.955331
  9337.941  120442.7  46969.1  0.941684
  9341.646  119941.7  47571.1  0.92478
  9345.37  119272.7  47838.1  0.91359
  9349.113  120658.7  48430.1  0.912844
  9352.875  119987.7  48096.1  0.914188
  9356.655  120594.7  48296.1  0.915085
  9360.456  120662.7  48315.1  0.915255
  9364.274  120544.7  48194.1  0.916784
  9368.112  120200.7  47916.1  0.919711
  9371.97  119833.7  47737.1  0.920396
  9375.846  120177.7  47771.1  0.922551
  9379.74  119774.7  47635.1  0.922043
  9383.654  120445.7  47782.1  0.924548
  9387.588  119193.7  47342.1  0.92335
  9391.54  120422.7  47864.1  0.922642
  9395.511  120139.7  47793.1  0.921774
  9399.501  120456.7  48076.1  0.918505
  9403.51  120156.7  48199.1  0.913456
  9407.538  120125.7  48678.1  0.903309
  9411.585  119994.7  49126.1  0.893057
  9415.651  119267.7  49483.1  0.879739
  9419.736  120771.7  50685.1  0.86827
  9423.841  120413.7  51009.1  0.858929
  9427.964  120472.7  51266.1  0.854393
  9432.106  120225.7  51359.1  0.850529
  9436.268  120331.7  51607.1  0.846593
  9440.448  119882.7  51645.1  0.842118
  9444.647  120383.7  52122.1  0.8370951
  9448.866  120247.7  52460.1  0.8295009
  9453.104  119875.7  52796.1  0.820018
  9457.359  120335.7  53391.1  0.812641
  9461.635  120309.7  53664.1  0.807325
  9465.93  120341.7  53918.1  0.802869
  9470.243  119942.7  54020.1  0.797658
  9474.575  120732.7  54655.1  0.792536
  9478.927  120507.7  54672.1  0.79036
  9483.298  120277.7  54686.1  0.788194
  9487.688  120171.7  54670.1  0.787605
  9492.096  120166.7  54699.1  0.787033
  9496.523  120128.7  54699.1  0.786716
  9500.97  119962.7  54657.1  0.786102
  9505.436  120104.7  54722.1  0.786096
  9509.92  120410.7  54955.1  0.784392
  9514.424  120425.7  55198.1  0.780104
  9518.946  120422.7  55500.1  0.774623
  9523.488  119957.7  55765.1  0.765991
  9528.049  120487.7  56537.1  0.756651
  9532.629  120462.7  57028.1  0.747796
  9537.228  120160.7  57259.1  0.741243
  9541.846  120638.7  57860.1  0.7347721
  9546.482  120416.7  58061.1  0.729462
  9551.139  119757.7  58064.1  0.723923
  9555.813  120460.7  58636.1  0.719973
  9560.507  120691.7  59015.1  0.715446
  9565.22  120363.7  59182.1  0.709899
  9569.952  120488.7  59557.1  0.70462
  9574.703  120599.7  59895.1  0.6998821
  9579.473  119666.7  59725.1  0.694958
  9584.262  120532.7  60547.1  0.6885
  9589.07  120236.7  60725.1  0.683105
  9593.896  120406.7  61094.1  0.67846
  9598.743  120575.7  61432.1  0.674345
  9603.608  120395.7  61574.1  0.670542
  9608.492  120687.7  61928.1  0.667232
  9613.396  120295.7  61948.1  0.663656
  9618.317  120555.7  62298.1  0.660181
  9623.259  119906.7  62148.1  0.657194
  9628.219  120302.7  62593.1  0.653356
  9633.198  120123.7  62701.1  0.650143
  9638.196  119444.7  62603.1  0.646039
  9643.214  120218.7  63312.1  0.641236
  9648.25  120287.7  63658.1  0.6363598
  9653.306  119908.7  63752.1  0.6317285
  9658.38  120259.7  64317.1  0.625828
  9663.473  119964.7  64497.1  0.620577
  9668.585  119574.7  64653.1  0.614905
  9673.717  119823.7  65185.1  0.608791
  9678.867  119220.7  65167.1  0.604022
  9684.037  119461.7  65656.1  0.5985653
  9689.225  119505.7  66023.1  0.593359
  9694.433  119743.7  66550.1  0.587399
  9699.659  119955.7  67005.1  0.582354
  9704.904  120644.7  67727.1  0.577363
  9710.169  120622.7  68014.1  0.572952
  9715.453  120127.7  68052.1  0.568282
  9720.756  120837.7  68809.1  0.563112
  9726.077  121280.7  69437.1  0.557686
  9731.418  121236.7  69725.1  0.553184
  9736.777  120469.7  69573.1  0.54902
  9742.156  107370.7  62341.1  0.543666
  9747.554  130108.7  75758.1  0.540825
  9752.971  125993.7  73628.1  0.537205
  9758.406  124664.7  73127.1  0.533429
  9763.861  123473.7  72768.1  0.528751
  9769.335  122665.7  72556.1  0.525103
  9774.827  120596.7  71578.1  0.521663
  9780.339  120778.7  72038.1  0.5167648
  9785.87  120693.7  72313.1  0.512251
  9791.42  119231.7  71764.1  0.507684
  9796.988  119957.7  72445.1  0.50431
  9802.577  120261.7  72960.1  0.499757
  9808.184  120286.7  73312.1  0.495152
  9813.81  120162.7  73579.1  0.490486
  9819.454  119952.7  73787.1  0.485914
  9825.118  119913.7  74108.1  0.481247
  9830.802  119756.7  74360.1  0.476543
  9836.504  118610.7  73966.1  0.47224
  9842.225  120129.7  75308.1  0.466984
  9847.965  120021.7  75593.1  0.462308
  9853.724  120016.7  75935.1  0.457752
  9859.502  115480.7  73415.1  0.452974
  9865.299  121396.7  77520.1  0.448526
  9871.115  121155.7  77705.1  0.4441556
  9876.95  119624.7  77074.1  0.439592
  9882.805  120776.7  78173.1  0.435018
  9888.678  120845.7  78576.1  0.430447
  9894.57  121344.7  79266.1  0.425825
  9900.481  120620.7  79145.1  0.421368
  9906.412  120260.7  79242.1  0.417154
  9912.361  120866.7  79982.1  0.412885
  9918.329  118931.7  79033.1  0.408683
  9924.316  120895.7  80681.1  0.404424
  9930.323  120630.7  80876.1  0.399815
  9936.349  121041.7  81528.1  0.395187
  9942.393  119849.7  81088.1  0.390702
  9948.456  120201.7  81688.1  0.386263
  9954.539  120683.7  82397.1  0.381623
  9960.641  118731.7  81431.1  0.377109
  9966.761  120659.7  83117.1  0.372724
  9972.9  121011.7  83754.1  0.368002
  9979.059  120708.7  83887.1  0.363908
  9985.236  119350.7  83317.1  0.359412
  9991.434  120781.7  84682.1  0.355081
  9997.648  119823.7  84391.1  0.35056
  10003.88  120512.7  85249.1  0.346178
  10010.14  119384.7  84846.1  0.341512
  10016.41  119403.7  85230.1  0.337156
  10022.7  120716.7  86580.1  0.332376
  10029.01  118280.7  85229.1  0.327718
  10035.34  118950.7  86100.1  0.323199
  10041.69  117702.7  85568.1  0.3188494
  10048.06  121382.7  88605.1  0.314759
  10054.45  120061.7  88019.1  0.310452
  10060.85  119951.7  88304.1  0.306303
  10067.28  120488.7  89110.1  0.301683
  10073.72  118833.7  88265.1  0.29738
  10080.18  118434.7  88372.1  0.292805
  10086.66  117995.7  88449.1  0.288221
  10093.17  118435.7  89180.1  0.283712
  10099.69  117303.7  88720.1  0.27928
  10106.22  117929.7  89581.1  0.274944
  10112.78  116857.7  89144.1  0.270703
  10119.36  115791.7  88718.1  0.266329
  10125.96  111467.7  85797.1  0.26175
  10132.57  110079.7  85128.1  0.257047
  10139.21  104190.7  80953.1  0.2523529
  10145.86  93726.7  73074.1  0.248909