File: data/fe_metal_rt.xdi
# XDI/1.0 GSE/1.0
# Column.1: energy eV
# Column.2: mutrans
# Column.3: i0
# Element.edge: K
# Element.symbol: Fe
# Scan.edge_energy: 7112.
# Mono.name: Si 111
# Mono.d_spacing: 3.13550
# Beamline.name: 13-BM-D
# Beamline.collimation: none
# Beamline.focusing: no
# Beamline.harmonic_rejection: detuned 50%
# Facility.name: APS
# Facility.energy: 7.00 GeV
# Facility.xray_source: APS bending magnet
# Scan.start_time: 2002-03-16T19:49:43
# Detector.I0: 15cm  N2
# Detector.I1: 15cm  N2
# Sample.name: Fe metal foil
# Sample.prep: standard foil (Joe Wong boxed set)
# ///
# room temperature
# measured at beamline 13-BM-D
# vert slits = 2mm (at 45m)
#----
#   energy       mutrans            i0
  6962       0.106329        303156.00
  6972       0.0962326    305705.00
  6982       0.086022    305821.00
  6992       0.0756411    306373.00
  7002       0.0657619    305919.00
  7012       0.0555781    305809.00
  7022       0.0459343    305925.00
  7032       0.0356424    305603.00
  7042       0.0269567    306302.00
  7052       0.0174572    305714.00
  7062       0.00844816    305804.00
  7072       0.000185035    305917.00
  7082      -0.00698644    305581.00
  7092      -0.0111019    305847.00
  7092.5      -0.0108797    305088.00
  7093      -0.0107966    305331.00
  7093.5      -0.0108276    305096.00
  7094      -0.0112063    305199.00
  7094.5      -0.0113307    305165.00
  7095      -0.0108405    305190.00
  7095.5      -0.0112254    304944.00
  7096      -0.0108289    305058.00
  7096.5      -0.0113239    305173.00
  7097      -0.0108481    305249.00
  7097.5      -0.0108591    305304.00
  7098      -0.0105539    305039.00
  7098.5      -0.00938568    305137.00
  7099      -0.00895007    305153.00
  7099.5      -0.00873056    305105.00
  7100      -0.00795979    304997.00
  7100.5      -0.00730342    304823.00
  7101      -0.00677882    304976.00
  7101.5      -0.00597284    304705.00
  7102      -0.00499324    304731.00
  7102.5      -0.00429583    304850.00
  7103      -0.0027063    304580.00
  7103.5      -0.00182119    304687.00
  7104       0.000904802    304735.00
  7104.5       0.00273092    304929.00
  7105       0.00551905    304805.00
  7105.5       0.00869627    304623.00
  7106       0.0113794    304520.00
  7106.5       0.0160602    304520.00
  7107       0.0215192    304829.00
  7107.5       0.0283209    304602.00
  7108       0.0376312    304414.00
  7108.5       0.0506897    304586.00
  7109       0.0704368    304596.00
  7109.5       0.104568        304428.00
  7110       0.169296        304465.00
  7110.5       0.273986        304320.00
  7111       0.425861        304466.00
  7111.5       0.573568        304401.00
  7112       0.681439        304226.00
  7112.5       0.76914        304454.00
  7113       0.842131        304322.00
  7113.5       0.904958        304273.00
  7114       0.958669        304279.00
  7114.5       0.999111        304428.00
  7115        1.01951        304265.00
  7115.5        1.03408        304007.00
  7116        1.05088        304056.00
  7116.5        1.0801        303372.00
  7117        1.13845        304018.00
  7117.5        1.22733        304658.00
  7118        1.32683        304430.00
  7118.5        1.44173        304164.00
  7119        1.54954        304064.00
  7119.5        1.66795        304090.00
  7120        1.79111        303928.00
  7120.5        1.90577        303894.00
  7121        2.01069        304074.00
  7121.5        2.10728        303948.00
  7122        2.18465        303860.00
  7122.5        2.25286        303835.00
  7123        2.3154        303853.00
  7123.5        2.36861        303762.00
  7124        2.41608        303798.00
  7124.5        2.46165        303766.00
  7125        2.50385        303773.00
  7125.5        2.54885        303708.00
  7126        2.59635        303660.00
  7126.5        2.64614        303682.00
  7127        2.70384        303554.00
  7127.5        2.76614        303609.00
  7128        2.83643        303668.00
  7128.5        2.90701        303636.00
  7129        2.97497        303618.00
  7129.5        3.03108        303384.00
  7130        3.07251        304448.00
  7130.5        3.0892        305003.00
  7131        3.0748        305275.00
  7131.5        3.03463        305585.00
  7132        2.98398        305358.00
  7132.88        2.87777        305376.00
  7133.78        2.78266        305338.00
  7134.71        2.7121        305472.00
  7135.65        2.67457        305257.00
  7136.61        2.66755        305426.00
  7137.58        2.68881        305382.00
  7138.58        2.72739        305145.00
  7139.6        2.76494        305358.00
  7140.63        2.78921        305164.00
  7141.69        2.78965        305169.00
  7142.76        2.77531        305076.00
  7143.86        2.76236        305237.00
  7144.97        2.77033        305205.00
  7146.1        2.80396        304944.00
  7147.25        2.85892        305114.00
  7148.42        2.91482        305169.00
  7149.61        2.95183        304923.00
  7150.81        2.97374        305144.00
  7152.04        2.9908        304979.00
  7153.29        2.9962        304932.00
  7154.55        2.98714        304819.00
  7155.83        2.97215        304972.00
  7157.14        2.95863        304865.00
  7158.46        2.9522        304843.00
  7159.8        2.95101        304825.00
  7161.16        2.94302        304773.00
  7162.54        2.92902        304744.00
  7163.94        2.90944        304797.00
  7165.35        2.89521        304689.00
  7166.79        2.88485        304644.00
  7168.25        2.87332        304656.00
  7169.72        2.85705        304475.00
  7171.21        2.83152        303453.00
  7172.73        2.79592        305975.00
  7174.26        2.75104        304714.00
  7175.81        2.70295        304525.00
  7177.38        2.65969        304521.00
  7178.97        2.63071        304502.00
  7180.57        2.62373        304535.00
  7182.2        2.63037        304646.00
  7183.85        2.64906        304371.00
  7185.51        2.68098        304433.00
  7187.2        2.72426        304193.00
  7188.9        2.76902        304278.00
  7190.62        2.821        304323.00
  7192.36        2.86729        304284.00
  7194.13        2.88257        304219.00
  7195.91        2.86472        304240.00
  7197.7        2.82199        304239.00
  7199.52        2.76533        304222.00
  7201.36        2.70188        304214.00
  7203.22        2.63253        304125.00
  7205.09        2.57251        304144.00
  7206.98        2.5444        304092.00
  7208.9        2.56832        304124.00
  7210.83        2.6554        304102.00
  7212.78        2.79235        304018.00
  7214.75        2.94622        304893.00
  7216.74        3.07646        304981.00
  7218.75        3.15717        305913.00
  7220.78        3.17461        306131.00
  7222.82        3.12313        305807.00
  7224.89        3.02264        305869.00
  7226.98        2.90052        305836.00
  7229.08        2.77359        305882.00
  7231.2        2.65207        305784.00
  7233.34        2.55172        305994.00
  7235.51        2.48413        305587.00
  7237.69        2.4543        305742.00
  7239.89        2.45655        305683.00
  7242.1        2.48451        305729.00
  7244.34        2.5264        305623.00
  7246.6        2.56397        305649.00
  7248.87        2.58256        305589.00
  7251.17        2.5751        305561.00
  7253.48        2.54968        305523.00
  7255.81        2.52968        305586.00
  7258.17        2.5334        305603.00
  7260.54        2.55689        305412.00
  7262.93        2.58039        305441.00
  7265.34        2.59755        305114.00
  7267.77        2.62026        305857.00
  7270.21        2.65844        305755.00
  7272.68        2.70514        305432.00
  7275.16        2.73234        305276.00
  7277.67        2.74737        305266.00
  7280.19        2.7691        305276.00
  7282.73        2.80005        305284.00
  7285.3        2.83079        305045.00
  7287.88        2.8442        305090.00
  7290.48        2.81492        305067.00
  7293.1        2.74627        305243.00
  7295.73        2.66068        305297.00
  7298.39        2.58123        304905.00
  7301.07        2.51755        304901.00
  7303.76        2.46944        304287.00
  7306.48        2.43956        305868.00
  7309.21        2.42542        305090.00
  7311.96        2.42435        304888.00
  7314.74        2.4243        304952.00
  7317.53        2.41988        304911.00
  7320.34        2.41466        304843.00
  7323.16        2.41181        304826.00
  7326.01        2.40841        304802.00
  7328.88        2.40331        304800.00
  7331.77        2.38847        304680.00
  7334.67        2.36759        304723.00
  7337.6        2.3541        304715.00
  7340.54        2.3588        304753.00
  7343.5        2.38831        304762.00
  7346.48        2.43224        304672.00
  7349.48        2.47756        304622.00
  7352.5        2.51892        304600.00
  7355.54        2.55313        304614.00
  7358.6        2.58439        304399.00
  7361.68        2.60899        304548.00
  7364.77        2.61907        304517.00
  7367.89        2.60969        305278.00
  7371.02        2.57634        305218.00
  7374.18        2.51795        306461.00
  7377.35        2.43312        306571.00
  7380.54        2.34509        305999.00
  7383.75        2.27931        306243.00
  7386.98        2.25017        306264.00
  7390.23        2.25184        306367.00
  7393.49        2.26498        306209.00
  7396.78        2.27637        306241.00
  7400.09        2.27744        306294.00
  7403.41        2.27272        306125.00
  7406.76        2.27185        306314.00
  7410.12        2.27236        305935.00
  7413.5        2.27213        305186.00
  7416.9        2.26918        307005.00
  7420.32        2.25764        306207.00
  7423.76        2.23997        305616.00
  7427.22        2.22431        306130.00
  7430.7        2.22115        306084.00
  7434.19        2.2239        305894.00
  7437.71        2.23428        305825.00
  7441.24        2.25539        305883.00
  7444.8        2.28002        305777.00
  7448.37        2.29799        305755.00
  7451.96        2.30556        305923.00
  7455.57        2.30369        305640.00
  7459.2        2.29786        305615.00
  7462.85        2.28405        305695.00
  7466.52        2.26135        305781.00
  7470.21        2.23332        306035.00
  7473.91        2.20377        305376.00
  7477.64        2.18209        305741.00
  7481.39        2.16324        305487.00
  7485.15        2.13924        305588.00
  7488.93        2.11427        305532.00
  7492.73        2.0946        305502.00
  7496.55        2.08795        305551.00
  7500.39        2.08812        305410.00
  7504.25        2.09233        304510.00
  7508.13        2.09205        306079.00
  7512.03        2.08815        305492.00
  7515.94        2.07957        305298.00
  7519.88        2.07352        305343.00
  7523.83        2.06961        305290.00
  7527.81        2.06888        305266.00
  7531.8        2.06749        305199.00
  7535.81        2.06482        305314.00
  7539.84        2.05753        305171.00
  7543.89        2.04921        305242.00
  7547.96        2.04313        305245.00
  7552.05        2.04191        305041.00
  7556.16        2.04632        305112.00
  7560.28        2.05264        305114.00
  7564.43        2.0527        305064.00
  7568.59        2.04641        305039.00
  7572.77        2.03248        305077.00
  7576.98        2.01133        305000.00
  7581.2        1.9909        304874.00
  7585.44        1.973        305096.00
  7589.7        1.96077        305089.00
  7593.98        1.9536        305688.00
  7598.27        1.95024        306823.00
  7602.59        1.94444        306913.00
  7606.93        1.93504        306620.00
  7611.28        1.92284        306910.00
  7615.66        1.91357        306760.00
  7620.05        1.9091        306629.00
  7624.46        1.90754        306669.00
  7628.89        1.90303        306463.00
  7633.34        1.89512        306502.00
  7637.81        1.88237        306567.00
  7642.3        1.86958        306538.00
  7646.81        1.85784        306433.00
  7651.34        1.84987        306487.00
  7655.88        1.84335        306345.00
  7660.45        1.83874        304477.00
  7665.03        1.83717        307956.00
  7669.63        1.83616        306429.00
  7674.26        1.83443        306401.00
  7678.9        1.83285        306205.00
  7683.56        1.82917        306417.00
  7688.24        1.82174        306283.00
  7692.94        1.811        306221.00
  7697.65        1.80111        306135.00
  7702.39        1.79235        306128.00
  7707.14        1.78333        306170.00
  7711.92        1.77103        306102.00
  7716.71        1.76055        306136.00
  7721.52        1.75043        306030.00
  7726.36        1.74262        306009.00
  7731.21        1.73591        305863.00
  7736.08        1.72864        301884.00
  7740.97        1.72242        310108.00
  7745.88        1.71496        306023.00
  7750.8        1.70848        305758.00
  7755.75        1.70271        305910.00
  7760.72        1.69337        305835.00
  7765.7        1.68382        305744.00
  7770.7        1.67392        305803.00
  7775.73        1.66512        305377.00
  7780.77        1.65693        306099.00
  7785.83        1.64951        306164.00
  7790.91        1.64184        305565.00
  7796.01        1.63543        305628.00
  7801.12        1.62942        305654.00
  7806.26        1.62429        305578.00
  7811.42        1.61756        305599.00
  7816.59        1.61295        305579.00
  7821.79        1.60523        305529.00
  7827        1.59928        304815.00
  7832.23        1.5924        306067.00
  7837.48        1.58621        305406.00
  7842.76        1.57942        305448.00
  7848.05        1.57157        305334.00
  7853.35        1.56444        305400.00
  7858.68        1.55591        305447.00
  7864.03        1.54743        305316.00
  7869.4        1.53852        305289.00
  7874.78        1.52978        305224.00
  7880.19        1.52048        305247.00
  7885.61        1.51221        305335.00
  7891.05        1.50468        305120.00
  7896.51        1.49652        305100.00
  7901.99        1.48855        305258.00
  7907.49        1.4803        305022.00
  7913.01        1.47282        305077.00
  7918.55        1.46469        305081.00
  7924.1        1.45781        305025.00
  7929.68        1.45017        304935.00
  7935.28        1.44326        305114.00
  7940.89        1.43762        304546.00
  7946.52        1.43105        305275.00
  7952.18        1.42361        304814.00
  7957.85        1.4173        304878.00
  7963.54        1.40998        304792.00
  7969.25        1.40237        305018.00