File: data/se_na2so4_rt.xdi
# XDI/1.0 GSE/1.0
# Column.1: energy eV
# Column.2: time
# Column.3: i0
# Column.4: itrans
# Element.edge: K
# Element.symbol: Se
# Scan.edge_energy: 12658.0
# Mono.name: Si 111
# Mono.d_spacing: 3.13550
# Beamline.name: 13-BM-D
# Beamline.collimation: none
# Beamline.focusing: no
# Beamline.harmonic_rejection: Rh-coated mirror, detuned
# Facility.name: APS
# Facility.energy: 7.00 GeV
# Facility.xray_source: APS bending magnet
# Scan.start_time: 2008-04-10T21:58:50
# Detector.I0: 10cm  N2
# Detector.I1: 10cm  N2 (?)
# Sample.name: Na2SeO4
# Sample.prep: powder on tape, 6 layers
# ///
# room temperature
# measured at beamline 13-BM-D
#----
#   energy       time                i0           itrans
       12508.00       2.000000       121961.4       559275.4
       12513.00       2.000000       120910.4       554974.4
       12518.00       2.000000       120177.4       551648.4
       12523.00       2.000000       119369.4       548592.4
       12528.00       2.000000       119664.4       550408.4
       12533.00       2.000000       120001.4       552350.4
       12538.00       2.000000       119744.4       551587.4
       12543.00       2.000000       119305.4       549955.4
       12548.00       2.000000       119301.4       550314.4
       12553.00       2.000000       119458.4       551479.4
       12558.00       2.000000       119437.4       551783.4
       12563.00       2.000000       119341.4       551697.4
       12568.00       2.000000       119495.4       552761.4
       12573.00       2.000000       119571.4       553541.4
       12578.00       2.000000       119526.4       553803.4
       12583.00       2.000000       119274.4       553011.4
       12588.00       2.000000       119078.4       552556.4
       12593.00       2.000000       119769.4       556051.4
       12598.00       2.000000       119531.4       555338.4
       12603.00       2.000000       119311.4       554659.4
       12608.00       2.000000       119477.4       555713.4
       12613.00       2.000000       119556.4       556547.4
       12618.00       2.000000       119474.4       556465.4
       12623.00       2.000000       119291.4       555855.4
       12628.00       2.000000       119360.4       556406.4
       12633.00       2.000000       119512.4       557247.4
       12638.00       2.000000       119345.4       556522.4
       12643.00       2.000000       119106.4       555033.4
       12648.00       2.000000       119222.4       554728.4
       12648.25       2.000000       119434.4       555577.4
       12648.50       2.000000       119601.4       556274.4
       12648.75       2.000000       119813.4       557246.4
       12649.00       2.000000       119833.4       557267.4
       12649.25       2.000000       119840.4       557311.4
       12649.50       2.000000       119809.4       556985.4
       12649.75       2.000000       119747.4       556555.4
       12650.00       2.000000       119683.4       556276.4
       12650.25       2.000000       119663.4       556048.4
       12650.50       2.000000       119686.4       555929.4
       12650.75       2.000000       119786.4       556389.4
       12651.00       2.000000       119720.4       555980.4
       12651.25       2.000000       119805.4       556131.4
       12651.50       2.000000       119695.4       555505.4
       12651.75       2.000000       119663.4       555292.4
       12652.00       2.000000       119708.4       555234.4
       12652.25       2.000000       119671.4       555042.4
       12652.50       2.000000       119570.4       554261.4
       12652.75       2.000000       119674.4       554538.4
       12653.00       2.000000       119556.4       553748.4
       12653.25       2.000000       119541.4       553577.4
       12653.50       2.000000       119538.4       553328.4
       12653.75       2.000000       119336.4       552020.4
       12654.00       2.000000       119409.4       552164.4
       12654.25       2.000000       119389.4       551684.4
       12654.50       2.000000       120168.4       554932.4
       12654.75       2.000000       120296.4       555266.4
       12655.00       2.000000       120381.4       555279.4
       12655.25       2.000000       120364.4       555035.4
       12655.50       2.000000       120275.4       553979.4
       12655.75       2.000000       120193.4       553069.4
       12656.00       2.000000       120152.4       552467.4
       12656.25       2.000000       120131.4       551689.4
       12656.50       2.000000       120146.4       551227.4
       12656.75       2.000000       120086.4       550098.4
       12657.00       2.000000       120063.4       549520.4
       12657.25       2.000000       120143.4       548906.4
       12657.50       2.000000       120134.4       548118.4
       12657.75       2.000000       120105.4       546952.4
       12658.00       2.000000       120102.4       545781.4
       12658.25       2.000000       120010.4       544520.4
       12658.50       2.000000       120064.4       543424.4
       12658.75       2.000000       120043.4       542142.4
       12659.00       2.000000       119979.4       540336.4
       12659.25       2.000000       120036.4       538582.4
       12659.50       2.000000       119929.4       536521.4
       12659.75       2.000000       119863.4       533836.4
       12660.00       2.000000       119979.4       532408.4
       12660.25       2.000000       119935.4       528918.4
       12660.50       2.000000       119977.4       526326.4
       12660.75       2.000000       119923.4       521651.4
       12661.00       2.000000       119931.4       516260.4
       12661.25       2.000000       119991.4       511760.4
       12661.50       2.000000       119934.4       503959.4
       12661.75       2.000000       119868.4       497017.4
       12662.00       2.000000       119937.4       487186.4
       12662.25       2.000000       119851.4       478238.4
       12662.50       2.000000       119853.4       465064.4
       12662.75       2.000000       119819.4       448437.4
       12663.00       2.000000       119862.4       435173.4
       12663.25       2.000000       119912.4       414199.4
       12663.50       2.000000       119856.4       397297.4
       12663.75       2.000000       119807.4       372088.4
       12664.00       2.000000       119927.4       346593.4
       12664.25       2.000000       119875.4       328561.4
       12664.50       2.000000       119785.4       305883.4
       12664.75       2.000000       119735.4       292449.4
       12665.00       2.000000       119736.4       280648.4
       12665.25       2.000000       119789.4       277049.4
       12665.50       2.000000       119863.4       279649.4
       12665.75       2.000000       119753.4       289728.4
       12666.00       2.000000       119755.4       301240.4
       12666.25       2.000000       119656.4       321226.4
       12666.50       2.000000       119619.4       337714.4
       12666.75       2.000000       119681.4       360302.4
       12667.00       2.000000       119653.4       375962.4
       12667.25       2.000000       119653.4       395947.4
       12667.50       2.000000       119550.4       411316.4
       12667.75       2.000000       119924.4       422547.4
       12668.00       2.000000       120294.4       435053.4
       12668.25       2.000000       120172.4       440569.4
       12668.50       2.000000       120180.4       447095.4
       12668.75       2.000000       120153.4       450869.4
       12669.00       2.000000       120107.4       455186.4
       12669.25       2.000000       120181.4       459053.4
       12669.50       2.000000       120190.4       461307.4
       12669.75       2.000000       120065.4       463525.4
       12670.00       2.000000       120136.4       465471.4
       12670.25       2.000000       120088.4       466827.4
       12670.50       2.000000       119995.4       467561.4
       12670.75       2.000000       120154.4       468832.4
       12671.00       2.000000       120047.4       468654.4
       12671.25       2.000000       120090.4       468768.4
       12671.50       2.000000       120019.4       467975.4
       12671.75       2.000000       120021.4       467349.4
       12672.00       2.000000       120138.4       467021.4
       12672.25       2.000000       120077.4       466078.4
       12672.50       2.000000       119970.4       464762.4
       12672.75       2.000000       119968.4       463926.4
       12673.00       2.000000       119920.4       463123.4
       12673.25       2.000000       120040.4       463116.4
       12673.50       2.000000       120053.4       463018.4
       12673.75       2.000000       120060.4       463159.4
       12674.00       2.000000       120100.4       463502.4
       12674.25       2.000000       119930.4       463702.4
       12674.50       2.000000       119848.4       464488.4
       12674.75       2.000000       119999.4       465987.4
       12675.00       2.000000       120015.4       467672.4
       12675.25       2.000000       120079.4       469143.4
       12675.50       2.000000       120039.4       470294.4
       12675.75       2.000000       119880.4       470738.4
       12676.00       2.000000       119969.4       472046.4
       12676.25       2.000000       119888.4       472590.4
       12676.50       2.000000       119997.4       473333.4
       12676.75       2.000000       119897.4       473172.4
       12677.00       2.000000       119809.4       472847.4
       12677.25       2.000000       119933.4       472873.4
       12677.50       2.000000       119889.4       472233.4
       12677.75       2.000000       119915.4       471371.4
       12678.00       2.000000       119937.4       470061.4
       12678.25       2.000000       119900.4       468566.4
       12678.50       2.000000       119910.4       466542.4
       12678.75       2.000000       119868.4       464585.4
       12679.00       2.000000       119749.4       461752.4
       12679.25       2.000000       119798.4       459957.4
       12679.50       2.000000       119778.4       457423.4
       12679.75       2.000000       119712.4       455730.4
       12680.00       2.000000       119727.4       453842.4
       12680.25       2.000000       119791.4       452609.4
       12680.50       2.000000       119810.4       452074.4
       12680.75       2.000000       119794.4       451529.4
       12681.00       2.000000       119749.4       451194.4
       12681.25       2.000000       120368.4       453800.4
       12681.50       2.000000       120234.4       453660.4
       12681.75       2.000000       120346.4       454639.4
       12682.00       2.000000       120433.4       455704.4
       12682.25       2.000000       120386.4       456142.4
       12682.50       2.000000       120301.4       456786.4
       12682.75       2.000000       120152.4       456954.4
       12683.00       2.000000       120111.4       457773.4
       12683.25       2.000000       120263.4       459116.4
       12683.50       2.000000       120252.4       460083.4
       12683.75       2.000000       120279.4       461331.4
       12684.00       2.000000       120327.4       462279.4
       12684.25       2.000000       120312.4       463266.4
       12684.50       2.000000       120278.4       464012.4
       12684.75       2.000000       120187.4       464554.4
       12685.00       2.000000       120110.4       464980.4
       12685.25       2.000000       120263.4       466394.4
       12685.50       2.000000       120231.4       466913.4
       12685.75       2.000000       120196.4       467386.4
       12686.00       2.000000       120116.4       467735.4
       12686.25       2.000000       120116.4       468207.4
       12686.50       2.000000       120216.4       469218.4
       12686.75       2.000000       120130.4       469353.4
       12687.00       2.000000       120167.4       469983.4
       12687.25       2.000000       120194.4       470513.4
       12687.50       2.000000       120124.4       470831.4
       12687.75       2.000000       120157.4       471562.4
       12688.00       2.000000       120181.4       472362.4
       12688.86       2.000000       120009.4       473957.4
       12689.73       2.000000       120004.4       476539.4
       12690.62       2.000000       119989.4       478883.4
       12691.52       2.000000       120012.4       481550.4
       12692.43       2.000000       120029.4       484210.4
       12693.35       2.000000       119985.4       486272.4
       12694.28       2.000000       119867.4       487772.4
       12695.23       2.000000       119820.4       489192.4
       12696.19       2.000000       119755.4       490409.4
       12697.16       2.000000       119632.4       491207.4
       12698.14       2.000000       120051.4       494253.4
       12699.13       2.000000       120034.4       495638.4
       12700.14       2.000000       120018.4       497011.4
       12701.16       2.000000       119929.4       497765.4
       12702.19       2.000000       119840.4       498616.4
       12703.24       2.000000       119864.4       499618.4
       12704.29       2.000000       119839.4       499969.4
       12705.36       2.000000       119895.4       500056.4
       12706.44       2.000000       119795.4       498838.4
       12707.53       2.000000       119810.4       497451.4
       12708.64       2.000000       119792.4       495216.4
       12709.75       2.000000       119717.4       492884.4
       12710.88       2.000000       119791.4       491157.4
       12712.02       2.000000       119832.4       489694.4
       12713.18       2.000000       119867.4       489095.4
       12714.34       2.000000       119953.4       488814.4
       12715.52       2.000000       119745.4       487542.4
       12716.71       2.000000       119728.4       487093.4
       12717.91       2.000000       119822.4       487271.4
       12719.13       2.000000       119788.4       486772.4
       12720.35       2.000000       119765.4       486374.4
       12721.59       2.000000       119838.4       486046.4
       12722.84       2.000000       119708.4       484476.4
       12724.10       2.000000       119787.4       483741.4
       12725.38       2.000000       119815.4       483013.4
       12726.67       2.000000       119784.4       482686.4
       12727.96       2.000000       119802.4       482909.4
       12729.28       2.000000       119653.4       482646.4
       12730.60       2.000000       119601.4       482319.4
       12731.94       2.000000       119699.4       482452.4
       12733.28       2.000000       119611.4       481495.4
       12734.64       2.000000       119491.4       480162.4
       12736.02       2.000000       119450.4       479077.4
       12737.40       2.000000       119507.4       478214.4
       12738.80       2.000000       119483.4       477224.4
       12740.21       2.000000       119086.4       474644.4
       12741.63       2.000000       119902.4       476987.4
       12743.06       2.000000       119650.4       475519.4
       12744.51       2.000000       119509.4       474961.4
       12745.96       2.000000       119537.4       475339.4
       12747.43       2.000000       119572.4       475769.4
       12748.92       2.000000       119536.4       475919.4
       12750.41       2.000000       119450.4       475865.4
       12751.92       2.000000       119368.4       475822.4
       12753.44       2.000000       119325.4       476029.4
       12754.97       2.000000       119494.4       477206.4
       12756.51       2.000000       119520.4       477742.4
       12758.06       2.000000       119496.4       478114.4
       12759.63       2.000000       119349.4       477923.4
       12761.21       2.000000       119321.4       478311.4
       12762.80       2.000000       119390.4       479181.4
       12764.41       2.000000       119567.4       480345.4
       12766.02       2.000000       119336.4       479938.4
       12767.65       2.000000       119300.4       480153.4
       12769.29       2.000000       119260.4       480426.4
       12770.94       2.000000       119168.4       480346.4
       12772.61       2.000000       118617.4       478529.4
       12774.29       2.000000       119528.4       482349.4
       12775.97       2.000000       119538.4       482609.4
       12777.68       2.000000       119291.4       482080.4
       12779.39       2.000000       119233.4       482570.4
       12781.11       2.000000       119386.4       483943.4
       12782.85       2.000000       119408.4       484980.4
       12784.60       2.000000       119371.4       485764.4
       12786.36       2.000000       119264.4       486137.4
       12788.14       2.000000       119188.4       486652.4
       12789.92       2.000000       119145.4       487131.4
       12791.72       2.000000       119178.4       487815.4
       12793.54       2.000000       119504.4       489760.4
       12795.36       2.000000       119933.4       491960.4
       12797.19       2.000000       119889.4       492060.4
       12799.04       2.000000       119749.4       491679.4
       12800.90       2.000000       119508.4       491107.4
       12802.77       2.000000       118901.4       488887.4
       12804.66       2.000000       120224.4       494553.4
       12806.55       2.000000       120099.4       494099.4
       12808.46       2.000000       119828.4       493035.4
       12810.38       2.000000       119820.4       492913.4
       12812.31       2.000000       119631.4       491966.4
       12814.26       2.000000       119545.4       491621.4
       12816.21       2.000000       119672.4       492024.4
       12818.18       2.000000       119765.4       492115.4
       12820.17       2.000000       119714.4       491889.4
       12822.16       2.000000       119676.4       491699.4
       12824.17       2.000000       119610.4       491193.4
       12826.18       2.000000       119763.4       491669.4
       12828.21       2.000000       119625.4       491199.4
       12830.25       2.000000       119648.4       491256.4
       12832.31       2.000000       119721.4       491637.4
       12834.38       2.000000       119676.4       491426.4
       12836.46       2.000000       119631.4       491148.4
       12838.55       2.000000       119306.4       489720.4
       12840.65       2.000000       119178.4       489058.4
       12842.76       2.000000       119865.4       491803.4
       12844.89       2.000000       119736.4       491211.4
       12847.03       2.000000       119667.4       490848.4
       12849.18       2.000000       119620.4       490867.4
       12851.35       2.000000       119546.4       490611.4
       12853.52       2.000000       119383.4       489892.4
       12855.71       2.000000       118768.4       487432.4
       12857.91       2.000000       119769.4       491613.4
       12860.13       2.000000       119710.4       491303.4
       12862.35       2.000000       119634.4       491039.4
       12864.59       2.000000       119550.4       491047.4
       12866.84       2.000000       119400.4       490664.4
       12869.10       2.000000       118753.4       488126.4
       12871.37       2.000000       119749.4       492276.4
       12873.66       2.000000       119538.4       491621.4
       12875.96       2.000000       119251.4       490689.4
       12878.27       2.000000       119441.4       491592.4
       12880.59       2.000000       119402.4       491729.4
       12882.92       2.000000       119440.4       492094.4
       12885.27       2.000000       119382.4       492144.4
       12887.63       2.000000       119277.4       491985.4
       12890.00       2.000000       119265.4       492148.4
       12892.38       2.000000       119293.4       492498.4
       12894.78       2.000000       119213.4       492377.4
       12897.19       2.000000       119316.4       493192.4
       12899.61       2.000000       119249.4       493292.4
       12902.04       2.000000       119205.4       493617.4
       12904.48       2.000000       119265.4       494398.4
       12906.94       2.000000       119334.4       495059.4
       12909.41       2.000000       119960.4       498213.4
       12911.89       2.000000       119949.4       498781.4
       12914.38       2.000000       119867.4       498807.4
       12916.88       2.000000       119915.4       499324.4
       12919.40       2.000000       119891.4       499472.4
       12921.93       2.000000       119779.4       499132.4
       12924.47       2.000000       119750.4       499501.4
       12927.03       2.000000       119728.4       499680.4
       12929.59       2.000000       119728.4       499961.4
       12932.17       2.000000       119813.4       500515.4
       12934.76       2.000000       119685.4       500042.4
       12937.36       2.000000       119908.4       501102.4
       12939.98       2.000000       119730.4       500581.4
       12942.61       2.000000       119569.4       500062.4
       12945.24       2.000000       119864.4       501745.4
       12947.90       2.000000       119817.4       501797.4
       12950.56       2.000000       119703.4       501474.4
       12953.23       2.000000       119676.4       501646.4
       12955.92       2.000000       119568.4       501451.4
       12958.62       2.000000       119762.4       502388.4
       12961.33       2.000000       119680.4       502202.4
       12964.06       2.000000       119528.4       501797.4
       12966.79       2.000000       119528.4       501991.4
       12969.54       2.000000       119716.4       503096.4
       12972.30       2.000000       119655.4       503009.4
       12975.08       2.000000       119679.4       503200.4
       12977.86       2.000000       119621.4       503090.4
       12980.66       2.000000       119586.4       503058.4
       12983.47       2.000000       119650.4       503554.4
       12986.29       2.000000       119611.4       503609.4
       12989.13       2.000000       119628.4       503802.4
       12991.97       2.000000       119393.4       502926.4
       12994.83       2.000000       119568.4       503736.4
       12997.70       2.000000       119584.4       503985.4
       13000.58       2.000000       119500.4       503750.4
       13003.48       2.000000       119611.4       504336.4
       13006.38       2.000000       119448.4       503877.4
       13009.30       2.000000       119474.4       504095.4
       13012.23       2.000000       119583.4       504893.4
       13015.18       2.000000       119466.4       504671.4
       13018.13       2.000000       119162.4       503604.4
       13021.10       2.000000       119621.4       505855.4
       13024.08       2.000000       119565.4       505777.4
       13027.07       2.000000       119597.4       506141.4
       13030.08       2.000000       119490.4       505930.4
       13033.09       2.000000       119379.4       505766.4
       13036.12       2.000000       119456.4       506487.4
       13039.16       2.000000       119517.4       506884.4
       13042.22       2.000000       119414.4       506737.4
       13045.28       2.000000       119379.4       506896.4
       13048.36       2.000000       119285.4       506728.4
       13051.45       2.000000       119457.4       507698.4
       13054.55       2.000000       119451.4       508049.4
       13057.67       2.000000       119761.4       509783.4
       13060.79       2.000000       119919.4       510828.4
       13063.93       2.000000       119852.4       510630.4
       13067.08       2.000000       119741.4       510521.4
       13070.24       2.000000       119898.4       511691.4
       13073.42       2.000000       119806.4       511593.4
       13076.60       2.000000       119901.4       512353.4
       13079.80       2.000000       119732.4       512066.4
       13083.01       2.000000       119739.4       512371.4
       13086.24       2.000000       119961.4       513558.4
       13089.47       2.000000       119849.4       513543.4
       13092.72       2.000000       119839.4       513788.4
       13095.98       2.000000       119801.4       513932.4
       13099.25       2.000000       119723.4       513921.4
       13102.54       2.000000       119692.4       514105.4
       13105.84       2.000000       119699.4       514386.4
       13109.14       2.000000       119787.4       515024.4
       13112.47       2.000000       119778.4       515337.4
       13115.80       2.000000       119749.4       515511.4
       13119.14       2.000000       119741.4       515778.4
       13122.50       2.000000       119651.4       515528.4
       13125.87       2.000000       119612.4       515793.4
       13129.25       2.000000       119703.4       516465.4
       13132.65       2.000000       119716.4       516755.4
       13136.05       2.000000       119759.4       517234.4
       13139.47       2.000000       119704.4       517314.4
       13142.90       2.000000       119778.4       517888.4
       13146.35       2.000000       119700.4       517702.4
       13149.80       2.000000       119626.4       517690.4
       13153.27       2.000000       119658.4       518205.4
       13156.75       2.000000       119666.4       518339.4
       13160.24       2.000000       119461.4       517825.4
       13163.74       2.000000       119573.4       518580.4
       13167.26       2.000000       119506.4       518550.4
       13170.79       2.000000       119548.4       518975.4
       13174.33       2.000000       119576.4       519277.4
       13177.88       2.000000       119429.4       518963.4
       13181.44       2.000000       119499.4       519540.4
       13185.02       2.000000       119532.4       519952.4
       13188.61       2.000000       119484.4       520029.4
       13192.21       2.000000       119629.4       520909.4
       13195.82       2.000000       119425.4       520338.4
       13199.45       2.000000       119414.4       520426.4
       13203.09       2.000000       119346.4       520480.4
       13206.74       2.000000       119462.4       521284.4
       13210.40       2.000000       119504.4       521749.4
       13214.07       2.000000       119446.4       521758.4
       13217.76       2.000000       118856.4       519580.4
       13221.46       2.000000       119770.4       523823.4
       13225.17       2.000000       119476.4       522947.4
       13228.89       2.000000       119286.4       522498.4
       13232.63       2.000000       119345.4       522915.4
       13236.37       2.000000       119387.4       523523.4
       13240.13       2.000000       119611.4       524694.4
       13243.91       2.000000       119949.4       526481.4
       13247.69       2.000000       119794.4       526111.4
       13251.49       2.000000       119738.4       526314.4
       13255.29       2.000000       119851.4       527099.4
       13259.11       2.000000       119923.4       527711.4
       13262.95       2.000000       119816.4       527618.4
       13266.79       2.000000       119416.4       526221.4
       13270.65       2.000000       118166.4       520933.4
       13274.52       2.000000       117566.4       518805.4
       13278.40       2.000000       119235.4       526405.4
       13282.29       2.000000       119533.4       528035.4
       13286.20       2.000000       119194.4       526933.4
       13290.11       2.000000       119690.4       529517.4
       13294.04       2.000000       119875.4       530688.4
       13297.99       2.000000       119737.4       530394.4
       13301.94       2.000000       119743.4       530850.4
       13305.91       2.000000       120097.4       532501.4
       13309.89       2.000000       120074.4       532908.4
       13313.88       2.000000       120083.4       533378.4
       13317.88       2.000000       120042.4       533642.4
       13321.90       2.000000       119813.4       532855.4
       13325.92       2.000000       119694.4       532717.4
       13329.96       2.000000       119657.4       532854.4
       13334.01       2.000000       119862.4       534066.4
       13338.08       2.000000       119899.4       534486.4
       13342.15       2.000000       119979.4       535208.4
       13346.24       2.000000       120061.4       535961.4
       13350.34       2.000000       120040.4       536184.4
       13354.46       2.000000       119853.4       535675.4
       13358.58       2.000000       119768.4       535623.4
       13362.72       2.000000       119570.4       534942.4
       13366.87       2.000000       119625.4       535579.4
       13371.03       2.000000       119612.4       535885.4
       13375.20       2.000000       119682.4       536567.4
       13379.39       2.000000       119751.4       537140.4
       13383.58       2.000000       119794.4       537766.4
       13387.79       2.000000       119736.4       537761.4
       13392.02       2.000000       119776.4       538121.4
       13396.25       2.000000       119877.4       538894.4
       13400.50       2.000000       119712.4       538546.4
       13404.76       2.000000       119580.4       538285.4