File: data/strontianite.xdi
# XDI/1.0
# Column.1: energy eV
# Column.2: i0
# Column.3: itrans
# Beamline.name: SSRL 4-3 (?)
# Detector.I0: N2 15cm
# Detector.I1: Ar 30cm
# Element.edge: K
# Element.symbol: Sr
# Mono.d_spacing: 1.92009
# Mono.name: Si(220)
# Mono.notes: (?) unfocussed, detuned 50%, clockwise at E=16800eV
# Sample.formula: SrCO3
# Sample.name: SrCO3 strontianite
# Sample.prep: powder mixed with B2O3 (1:10)
# Sample.reference: none
# Sample.temperature: 12K
# Scan.start_time: 1997-03-17 12:43:45
# ///
#    Note: mono d_spacing is nominal!
#     exafs to K15
#     331  E XMU  I0
#-------------
#   energy   i0   itrans
   15700  37319.2  43244.2
   15710  37087.2  43053.2
   15720  36836.2  42846.2
   15729.9  36600.2  42637.2
   15739.9  35668.2  41590.2
   15749.9  36302.2  42411.2
   15759.9  36122.2  42307.2
   15770  35855.2  42063.2
   15780  35608.2  41835.2
   15790.1  35466.2  41737.2
   15800  35268.2  41579.2
   15810  35038.2  41377.2
   15820  34780.2  41124.2
   15830.1  34656.2  41063.2
   15840  34486.2  40932.2
   15850  34234.2  40676.2
   15860  33985.2  40433.2
   15870  33793.2  40276.2
   15880  33535.2  40009.2
   15890  33404.2  39921.2
   15900  33149.2  39685.2
   15910.1  32955.2  39493.2
   15919.9  32737.2  39289.2
   15930  32549.2  39122.2
   15939.9  32356.2  38956.2
   15950  32124.2  38719.2
   15960  31951.2  38581.2
   15970.1  31662.2  38272.2
   15980  31388.2  38000.2
   15990  31276.2  37918.2
   16000  31058.2  37685.2
   16010  30882.2  37528.2
   16020  30666.2  37314.2
   16030.1  30437.2  37074.2
   16039.9  30221.2  36824.2
   16050  30028.2  36631.2
   16060  29816.2  36395.2
   16070  29587.2  36072.2
   16080.1  29363.2  35714.2
   16090  29117.2  35050.2
   16099.9  28899.2  30501.2
   16110.1  28722.2  18321.2
   16120  28507.2  23166.2
   16121.2  28478.2  23324.2
   16122.4  28420.2  23414.2
   16123.8  28381.2  23493.2
   16125  28329.2  23494.2
   16126.2  28277.2  23479.2
   16127.4  28252.2  23471.2
   16128.8  28185.2  23367.2
   16130  28136.2  23208.2
   16131.2  28072.2  23027.2
   16132.4  27917.2  22742.2
   16133.8  27884.2  22537.2
   16135  27861.2  22373.2
   16136.2  27820.2  22177.2
   16137.4  27830.2  22031.2
   16138.8  27796.2  21798.2
   16140  27778.2  21572.2
   16141.2  27774.2  21373.2
   16142.4  27739.2  21152.2
   16143.8  27689.2  20951.2
   16145  27655.2  20824.2
   16146.2  27574.2  20694.2
   16147.4  27549.2  20659.2
   16148.8  27490.2  20626.2
   16150  27458.2  20666.2
   16151.2  27421.2  20707.2
   16152.4  27364.2  20760.2
   16153.8  27297.2  20836.2
   16155  27260.2  20948.2
   16155.7  27233.2  20989.2
   16156.4  27207.2  21063.2
   16157.1  27187.1  21131.1
   16157.8  27126.1  21171
   16158.5  27060  21214.9
   16159.4  27054  21317.8
   16160  27016.9  21359.6
   16160.9  26977.8  21421.4
   16161.8  26939.7  21470.2
   16162.6  26926.6  21530
   16163.5  26878.5  21561.7
   16164.4  26858.3  21608.5
   16165.2  26831.2  21651.2
   16166.3  26799  21702.8
   16167.1  26812.8  21768.5
   16168.2  26809.7  21816.1
   16169.2  26786.5  21847.7
   16170.1  26787.2  21875.3
   16171.1  26766  21885.8
   16172.2  26808.8  21931.4
   16173.4  26813.5  21906.9
   16174.4  26798.3  21873.3
   16175.5  26801  21834.8
   16176.7  26838.7  21791.2
   16177.7  26896.4  21789.6
   16178.9  26945.1  21774
   16180.1  26954.8  21719.4
   16181.3  27031.5  21716.7
   16182.6  27129.1  21761
   16183.8  27254.8  21832.3
   16185.2  27399.4  21925.6
   16186.4  27528  22008.8
   16187.8  27664.6  22106
   16189  27787.2  22201.2
   16190.4  27873.8  22256.4
   16191.8  27995.4  22349.5
   16193.1  28100  22416.6
   16194.5  28168.5  22467.7
   16195.9  28254  22529.8
   16197.5  28262.6  22530.8
   16198.9  28341.1  22577.8
   16200.4  28422.6  22623.8
   16202  28460.1  22656.8
   16203.4  28554.5  22719.7
   16205  28624  22780.7
   16206.5  28695.5  22847.6
   16208.1  28783.9  22961.4
   16209.8  28826.3  23054.3
   16211.4  28973.7  23221.1
   16213  29099.1  23375.9
   16214.7  29166.5  23527.7
   16216.4  29302.9  23732.4
   16218.2  29332.3  23852.2
   16219.9  29430.6  24028.9
   16221.7  29525  24186.5
   16223.4  29655.3  24348.2
   16225.2  29742.6  24461.8
   16226.9  29860.9  24590.4
   16228.8  29945.2  24672
   16230.6  30030.5  24759.6
   16232.5  30149.8  24854.1
   16234.4  30234  24916.6
   16236.3  30365.3  25012.1
   16238.2  30510.5  25112.6
   16240.2  30616.8  25180
   16242.1  30756  25277.4
   16244.2  30864.2  25338.8
   16246.1  30983.3  25401.2
   16248.2  31103.5  25464.5
   16250.3  31228.7  25516.8
   16252.2  31380.8  25592.1
   16254.3  31498  25668.4
   16256.4  31625.1  25779.6
   16258.7  31714.2  25905.8
   16260.8  31860.3  26084
   16262.9  32019.4  26283.2
   16265.2  32153.5  26443.3
   16267.3  32265.6  26572.5
   16269.6  32437.6  26704.6
   16271.8  32554.6  26782.6
   16274.1  32744.7  26912.7
   16276.4  32872.7  27010.7
   16278.7  33022.7  27115.7
   16281  33179.7  27227.7
   16283.4  33270.7  27315.6
   16285.7  33397.6  27444.6
   16288.2  33632.6  27677.5
   16290.5  33738.6  27834.4
   16292.9  33907.5  28042.2
   16295.4  34052.4  28230
   16297.8  34180.3  28404.8
   16300.3  34390.2  28585.6
   16302.8  34539.1  28764.4
   16305.4  34628  28901.1
   16307.9  34844.8  29105.8
   16310.5  35034.7  29309.5
   16313  35198.5  29463.2
   16315.6  35310.3  29580.8
   16318.3  35466.2  29705.4
   16320.9  35634  29828
   16323.6  35797.8  29926.6
   16326.2  35936.5  30010.1
   16329  36067.3  30053.6
   16331.7  36277  30159.1
   16334.5  36402.8  30264.6
   16337.2  36572.5  30419
   16340  36780.2  30620.5
   16342.8  36921.9  30783.9
   16345.7  37090.6  30977.2
   16348.5  37239.3  31176.6
   16351.3  37411  31371.9
   16354.3  37611.6  31575.2
   16357.2  37762.3  31772.5
   16360  37946.9  31984.7
   16363  38041.5  32117.9
   16366  38161.1  32262.1
   16369.1  38348.7  32445.3
   16372.1  38525.3  32587.5
   16375.1  38707.9  32736.6
   16378.1  38946.5  32911.7
   16381.1  39093  33028.8
   16384.2  39257.5  33155.8
   16387.4  39401.1  33320.9
   16390.4  39571.6  33519.9
   16393.6  39758.1  33746.9
   16396.8  39966.6  33953.8
   16400  40112  34139.7
   16403.2  40248.5  34299.7
   16406.4  40470  34533.5
   16409.6  40680.4  34720.4
   16412.8  40765.8  34820.2
   16416.2  40971.2  34988.1
   16419.4  41112.6  35094.8
   16422.8  41220  35186.6
   16426.1  41515.4  35405.3
   16429.5  41666.8  35546.1
   16432.9  41827.1  35704.8
   16436.3  41988.5  35868.4
   16439.7  42192.8  36076.1
   16443.2  42348.1  36253.7
   16446.6  42479.4  36406.3
   16450  42704.7  36641.8
   16453.6  42804  36782.4
   16457.2  42991.3  36995.9
   16460.6  43052.6  37113.4
   16464.2  43340.8  37357.9
   16467.8  43495  37520.3
   16471.4  43587.3  37638.8
   16475  43683.5  37765.2
   16478.8  43909.7  37992.5
   16482.4  44095.9  38180.9
   16486  44263  38364.2
   16489.8  44420.2  38538.5
   16493.6  44607.3  38678.8
   16497.2  44672.5  38751.1
   16500.9  44909.6  38945.3
   16504.7  44987.7  39043.5
   16508.5  45116.8  39220.7
   16512.3  45199.9  39337.8
   16516.3  45409  39539
   16520.1  45560.1  39685.1
   16523.9  45707.1  39861.2
   16527.9  45914.2  40049.2
   16531.9  46125.2  40260.3
   16535.7  46221.2  40381.3
   16539.7  46294.2  40504.3
   16543.6  46543.2  40698.2
   16547.6  46637.2  40836.2
   16551.6  46766.2  40993.1
   16555.8  46874.1  41154
   16559.8  47009.1  41320.8
   16564  47095  41440.7
   16568  47333.9  41652.5
   16572.2  47400.8  41742.3
   16576.4  47527.7  41911.1
   16580.4  47791.6  42168.8
   16584.6  47990.5  42339.5
   16588.8  48209.3  42514.2
   16593  48221.2  42583.9
   16597.3  48387  42768.6
   16601.5  48537.9  42964.2
   16605.7  48577.7  43054.8
   16610.1  48684.5  43218.4
   16614.5  48871.3  43421.9
   16618.7  48944  43539.4
   16623.1  49084.8  43707
   16627.5  49199.6  43823.4
   16631.9  49300.3  43946.9
   16636.3  49439  44083.3
   16640.7  49522.7  44187.7
   16645.3  49691.4  44357.1
   16649.7  49735.1  44445.5
   16654.3  49957.8  44631.8
   16658.7  50052.5  44773.1
   16663.3  50106.1  44844.4
   16667.9  49993.8  44801.7
   16672.4  50249.4  45091.9
   16677  50445  45320.1
   16681.8  50562.7  45460.3
   16686.4  50685.3  45612.5
   16691  50659.8  45655.6
   16695.6  50823.4  45850.7
   16700.4  50923  45980.8
   16705  50950.5  46042.9
   16709.9  51096.1  46168.9
   16714.7  51093.6  46186.9
   16719.3  51237.1  46346.9
   16724.1  51281.6  46439.9
   16728.9  51345.1  46508.9
   16733.8  51349.6  46560.8
   16738.6  51427  46676.7
   16743.6  51649.5  46909.6
   16748.4  51609.9  46954.4
   16753.3  51805.3  47162.2
   16758.3  51884.8  47287
   16763.3  51856.2  47269.8
   16768.2  51984.6  47414.6
   16773.2  51883.9  47366.3
   16778.3  51661.3  47172
   16783.3  51955.7  47556.7
   16788.3  52094  47692.3
   16793.4  52188.3  47809
   16798.6  52245.6  47915.6
   16803.7  52380  48060.1
   16808.7  52321.2  48047.7
   16814  52322.5  48104.2
   16819.1  52305.8  48146.8
   16824.3  52416.1  48298.2
   16829.6  52452.3  48350.7
   16834.8  52641.5  48547.1
   16840.1  52763.8  48674.6
   16845.4  52746  48704.9
   16850.6  52657.2  48675.3
   16855.9  52832.4  48841.6
   16861.4  52769.5  48813
   16866.7  52820.7  48911.3
   16872.1  52850.9  48972.5
   16877.4  52853  49031.8
   16882.9  52716.1  48977
   16888.4  52748.2  49058.2
   16893.7  52768.3  49103.4
   16899.2  52739.4  49106.5
   16904.7  52768.5  49165.6
   16910.2  52689.6  49139.7
   16915.9  52734.6  49210.8
   16921.4  52700.7  49202.8
   16926.9  52673.7  49202.9
   16932.6  52627.7  49205.9
   16938.1  52551.7  49192.9
   16943.8  52494.7  49171.8
   16949.5  52570.7  49281.7
   16955.1  52493.7  49255.6
   16960.8  52558.6  49338.5
   16966.5  52393.6  49242.4
   16972.2  52432.5  49318.2
   16978  52352.4  49255
   16983.7  52181.3  49135.8
   16989.6  52197.2  49165.6
   16995.4  52380.1  49387.3
   17001.3  52157  49221