File: data/zn_znse_rt.xdi
# XDI/1.0 GSE/1.0
# Column.1: energy eV
# Column.2: time
# Column.3: i0
# Column.4: itrans
# Element.edge: K
# Element.symbol: Zn
# Scan.edge_energy: 9659.0
# Mono.name: Si 111
# Mono.d_spacing: 3.13550
# Beamline.name: 13-BM-D
# Beamline.collimation: none
# Beamline.focusing: no
# Beamline.harmonic_rejection: Rh-coated mirror, detuned
# Facility.name: APS
# Facility.energy: 7.00 GeV
# Facility.xray_source: APS bending magnet
# Scan.start_time: 2008-04-10T17:00:26
# Detector.I0: 10cm  N2
# Detector.I1: 10cm  N2 (?)
# Sample.name: ZnSe
# Sample.prep: powder on tape, 6 layers
# ///
# room temperature
# measured at beamline 13-BM-D
#----
#   energy       time                i0           itrans
       9509.000       1.000000       103316.7       169556.2
       9514.000       1.000000       100838.7       165838.2
       9519.000       1.000000       100983.7       166450.2
       9524.000       1.000000       100141.7       165477.2
       9529.000       1.000000       100327.7       166294.2
       9534.000       1.000000       100201.7       166383.2
       9539.000       1.000000       100383.7       167101.2
       9544.000       1.000000       100224.7       167246.2
       9549.000       1.000000       100350.7       167848.2
       9554.000       1.000000       100648.7       168696.2
       9559.000       1.000000       100625.7       169088.2
       9564.000       1.000000       100323.7       169017.2
       9569.000       1.000000       100439.7       169553.2
       9574.000       1.000000       99778.70       168948.2
       9579.000       1.000000       100357.7       170236.2
       9584.000       1.000000       100388.7       170654.2
       9589.000       1.000000       100368.7       171024.2
       9594.000       1.000000       100389.7       171444.2
       9599.000       1.000000       100330.7       171760.2
       9604.000       1.000000       100220.7       172004.2
       9609.000       1.000000       100383.7       172596.2
       9614.000       1.000000       100468.7       173198.2
       9619.000       1.000000       100897.7       174320.2
       9624.000       1.000000       100663.7       174196.2
       9629.000       1.000000       100674.7       174594.2
       9634.000       1.000000       100874.7       175276.2
       9639.000       1.000000       100717.7       175301.2
       9644.000       1.000000       100503.7       175145.2
       9649.000       1.000000       100628.7       175431.2
       9649.250       1.000000       100875.7       175818.2
       9649.500       1.000000       100854.7       175757.2
       9649.750       1.000000       100909.7       175849.2
       9650.000       1.000000       100964.7       175962.2
       9650.250       1.000000       101026.7       176052.2
       9650.500       1.000000       100991.7       176020.2
       9650.750       1.000000       101049.7       176101.2
       9651.000       1.000000       101070.7       176104.2
       9651.250       1.000000       101043.7       176047.2
       9651.500       1.000000       100999.7       175926.2
       9651.750       1.000000       100963.7       175877.2
       9652.000       1.000000       100842.7       175645.2
       9652.250       1.000000       100830.7       175604.2
       9652.500       1.000000       100874.7       175621.2
       9652.750       1.000000       100864.7       175597.2
       9653.000       1.000000       100953.7       175726.2
       9653.250       1.000000       100926.7       175640.2
       9653.500       1.000000       100982.7       175679.2
       9653.750       1.000000       100977.7       175692.2
       9654.000       1.000000       100962.7       175581.2
       9654.250       1.000000       100854.7       175351.2
       9654.500       1.000000       100939.7       175433.2
       9654.750       1.000000       100959.7       175448.2
       9655.000       1.000000       100927.7       175325.2
       9655.250       1.000000       100981.7       175361.2
       9655.500       1.000000       100900.7       175197.2
       9655.750       1.000000       100933.7       175164.2
       9656.000       1.000000       100937.7       175098.2
       9656.250       1.000000       100904.7       174984.2
       9656.500       1.000000       100892.7       174873.2
       9656.750       1.000000       100917.7       174810.2
       9657.000       1.000000       100954.7       174766.2
       9657.250       1.000000       100952.7       174633.2
       9657.500       1.000000       100945.7       174495.2
       9657.750       1.000000       100955.7       174327.2
       9658.000       1.000000       100983.7       174229.2
       9658.250       1.000000       100875.7       173887.2
       9658.500       1.000000       100867.7       173707.2
       9658.750       1.000000       100855.7       173474.2
       9659.000       1.000000       100807.7       173219.2
       9659.250       1.000000       100820.7       172998.2
       9659.500       1.000000       100843.7       172658.2
       9659.750       1.000000       100827.7       172338.2
       9660.000       1.000000       100868.7       172011.2
       9660.250       1.000000       100853.7       171574.2
       9660.500       1.000000       100870.7       171016.2
       9660.750       1.000000       100884.7       170408.2
       9661.000       1.000000       100843.7       169616.2
       9661.250       1.000000       100851.7       168839.2
       9661.500       1.000000       100772.7       167764.2
       9661.750       1.000000       100837.7       166720.2
       9662.000       1.000000       100840.7       164928.2
       9662.250       1.000000       100798.7       162857.2
       9662.500       1.000000       100809.7       160303.2
       9662.750       1.000000       100744.7       157000.2
       9663.000       1.000000       100659.7       152700.2
       9663.250       1.000000       100695.7       147025.2
       9663.500       1.000000       100753.7       141581.2
       9663.750       1.000000       100706.7       136040.2
       9664.000       1.000000       100813.7       130560.2
       9664.250       1.000000       100850.7       125560.2
       9664.500       1.000000       100780.7       120579.2
       9664.750       1.000000       100831.7       117646.2
       9665.000       1.000000       100757.7       115623.2
       9665.250       1.000000       100758.7       114293.2
       9665.500       1.000000       100708.7       113208.2
       9665.750       1.000000       100720.7       111862.2
       9666.000       1.000000       100699.7       110283.2
       9666.250       1.000000       100652.7       108343.2
       9666.500       1.000000       100721.7       106450.2
       9666.750       1.000000       100782.7       104715.2
       9667.000       1.000000       100681.7       103173.2
       9667.250       1.000000       100730.7       102680.2
       9667.500       1.000000       100728.7       103011.2
       9667.750       1.000000       100683.7       104125.2
       9668.000       1.000000       100725.7       105955.2
       9668.250       1.000000       100685.7       108719.2
       9668.500       1.000000       100662.7       111197.2
       9668.750       1.000000       100550.7       113729.2
       9669.000       1.000000       100634.7       116195.2
       9669.250       1.000000       100705.7       118245.2
       9669.500       1.000000       100720.7       119789.2
       9669.750       1.000000       100753.7       121102.2
       9670.000       1.000000       100704.7       121664.2
       9670.250       1.000000       100651.7       121851.2
       9670.500       1.000000       100656.7       121796.2
       9670.750       1.000000       100618.7       121529.2
       9671.000       1.000000       100593.7       121142.2
       9671.250       1.000000       100609.7       120971.2
       9671.500       1.000000       100680.7       120951.2
       9671.750       1.000000       100708.7       121097.2
       9672.000       1.000000       100671.7       121293.2
       9672.250       1.000000       100563.7       121521.2
       9672.500       1.000000       100601.7       121851.2
       9672.750       1.000000       100552.7       121982.2
       9673.000       1.000000       100583.7       121999.2
       9673.250       1.000000       100598.7       121755.2
       9673.500       1.000000       100561.7       121167.2
       9673.750       1.000000       100565.7       120379.2
       9674.000       1.000000       100581.7       119599.2
       9674.250       1.000000       100556.7       118748.2
       9674.500       1.000000       100601.7       118042.2
       9674.750       1.000000       100605.7       117374.2
       9675.000       1.000000       100612.7       116844.2
       9675.250       1.000000       100546.7       116490.2
       9675.500       1.000000       100507.7       116442.2
       9675.750       1.000000       100430.7       116634.2
       9676.000       1.000000       100503.7       117289.2
       9676.250       1.000000       100531.7       118153.2
       9676.500       1.000000       100585.7       119397.2
       9676.750       1.000000       100639.7       120597.2
       9677.000       1.000000       100547.7       121544.2
       9677.250       1.000000       100535.7       122560.2
       9677.500       1.000000       100514.7       123423.2
       9677.750       1.000000       100464.7       124331.2
       9678.000       1.000000       100431.7       124937.2
       9678.250       1.000000       100488.7       125536.2
       9678.500       1.000000       100446.7       125898.2
       9678.750       1.000000       100427.7       126151.2
       9679.000       1.000000       100505.7       126383.2
       9679.250       1.000000       100579.7       126571.2
       9679.500       1.000000       100548.7       126583.2
       9679.750       1.000000       100511.7       126565.2
       9680.000       1.000000       100481.7       126542.2
       9680.250       1.000000       100438.7       126574.2
       9680.500       1.000000       100395.7       126610.2
       9680.750       1.000000       100477.7       126832.2
       9681.000       1.000000       100415.7       126899.2
       9681.250       1.000000       100408.7       127039.2
       9681.500       1.000000       100476.7       127290.2
       9681.750       1.000000       100427.7       127404.2
       9682.000       1.000000       100369.7       127473.2
       9682.250       1.000000       100337.7       127553.2
       9682.500       1.000000       100295.7       127566.2
       9682.750       1.000000       100358.7       127722.2
       9683.000       1.000000       100449.7       127898.2
       9683.250       1.000000       100436.7       127945.2
       9683.500       1.000000       100493.7       128095.2
       9683.750       1.000000       100558.7       128198.2
       9684.000       1.000000       100427.7       128066.2
       9684.250       1.000000       100476.7       128143.2
       9684.500       1.000000       100402.7       128006.2
       9684.750       1.000000       100403.7       127972.2
       9685.000       1.000000       100326.7       127754.2
       9685.250       1.000000       100320.7       127653.2
       9685.500       1.000000       100345.7       127590.2
       9685.750       1.000000       100375.7       127441.2
       9686.000       1.000000       100354.7       127274.2
       9686.250       1.000000       100480.7       127270.2
       9686.500       1.000000       100401.7       126992.2
       9686.750       1.000000       100436.7       126917.2
       9687.000       1.000000       100383.7       126752.2
       9687.250       1.000000       100389.7       126609.2
       9687.500       1.000000       100316.7       126441.2
       9687.750       1.000000       100402.7       126476.2
       9688.000       1.000000       100302.7       126264.2
       9688.250       1.000000       100343.7       126252.2
       9688.500       1.000000       100265.7       126119.2
       9688.750       1.000000       100318.7       126141.2
       9689.000       1.000000       100245.7       125971.2
       9689.861       1.000000       100227.7       125771.2
       9690.734       1.000000       100251.7       125704.2
       9691.619       1.000000       100206.7       125623.2
       9692.517       1.000000       100211.7       125689.2
       9693.427       1.000000       100227.7       125639.2
       9694.349       1.000000       100184.7       125419.2
       9695.282       1.000000       100262.7       125205.2
       9696.229       1.000000       100322.7       124989.2
       9697.187       1.000000       100272.7       124630.2
       9698.157       1.000000       100161.7       124478.2
       9699.140       1.000000       100217.7       124690.2
       9700.135       1.000000       100237.7       124976.2
       9701.142       1.000000       100252.7       125067.2
       9702.161       1.000000       100250.7       125068.2
       9703.192       1.000000       100208.7       124980.2
       9704.236       1.000000       100246.7       125022.2
       9705.292       1.000000       100154.7       124847.2
       9706.359       1.000000       100154.7       124789.2
       9707.439       1.000000       100133.7       124782.2
       9708.532       1.000000       100171.7       124874.2
       9709.637       1.000000       100202.7       124978.2
       9710.753       1.000000       100115.7       124945.2
       9711.882       1.000000       100088.7       124844.2
       9713.023       1.000000       99794.70       124316.2
       9714.177       1.000000       100435.7       124809.2
       9715.342       1.000000       100911.7       125225.2
       9716.520       1.000000       100847.7       125164.2
       9717.709       1.000000       100706.7       125203.2
       9718.911       1.000000       100674.7       125422.2
       9720.125       1.000000       100649.7       125704.2
       9721.352       1.000000       100625.7       126047.2
       9722.590       1.000000       100610.7       126447.2
       9723.841       1.000000       100495.7       126701.2
       9725.104       1.000000       100488.7       127064.2
       9726.378       1.000000       100511.7       127412.2
       9727.665       1.000000       100585.7       127742.2
       9728.965       1.000000       100507.7       127750.2
       9730.276       1.000000       100267.7       127334.2
       9731.600       1.000000       99813.70       126512.2
       9732.936       1.000000       101065.7       127737.2
       9734.284       1.000000       100846.7       127067.2
       9735.645       1.000000       100658.7       126457.2
       9737.017       1.000000       100497.7       126069.2
       9738.401       1.000000       100504.7       126018.2
       9739.798       1.000000       100493.7       126097.2
       9741.207       1.000000       100604.7       126383.2
       9742.628       1.000000       100493.7       126374.2
       9744.062       1.000000       100433.7       126430.2
       9745.507       1.000000       100534.7       126685.2
       9746.965       1.000000       100574.7       126857.2
       9748.435       1.000000       100515.7       126911.2
       9749.916       1.000000       100409.7       126951.2
       9751.411       1.000000       100297.7       126994.2
       9752.917       1.000000       100388.7       127387.2
       9754.436       1.000000       100476.7       127819.2
       9755.967       1.000000       100436.7       128153.2
       9757.510       1.000000       100435.7       128523.2
       9759.064       1.000000       100470.7       128832.2
       9760.632       1.000000       100450.7       128962.2
       9762.211       1.000000       100453.7       128971.2
       9763.803       1.000000       100469.7       128916.2
       9765.406       1.000000       100523.7       128943.2
       9767.022       1.000000       100514.7       128963.2
       9768.650       1.000000       100424.7       129061.2
       9770.291       1.000000       100514.7       129569.2
       9771.943       1.000000       100416.7       129898.2
       9773.608       1.000000       100202.7       130013.2
       9775.285       1.000000       98527.70       128118.2
       9776.975       1.000000       101309.7       131832.2
       9778.676       1.000000       100939.7       131400.2
       9780.389       1.000000       100697.7       131091.2
       9782.114       1.000000       100680.7       131100.2
       9783.853       1.000000       100570.7       130951.2
       9785.603       1.000000       100591.7       130948.2
       9787.364       1.000000       100361.7       130566.2
       9789.139       1.000000       100258.7       130318.2
       9790.925       1.000000       100408.7       130423.2
       9792.724       1.000000       100438.7       130409.2
       9794.535       1.000000       100395.7       130250.2
       9796.357       1.000000       100329.7       130066.2
       9798.193       1.000000       100324.7       129953.2
       9800.040       1.000000       100331.7       129932.2
       9801.900       1.000000       100318.7       129949.2
       9803.771       1.000000       100030.7       129649.2
       9805.655       1.000000       100416.7       130196.2
       9807.552       1.000000       100491.7       130296.2
       9809.460       1.000000       100467.7       130299.2
       9811.381       1.000000       100320.7       130221.2
       9813.313       1.000000       100374.7       130445.2
       9815.258       1.000000       100390.7       130665.2
       9817.215       1.000000       100370.7       130865.2
       9819.185       1.000000       100309.7       131070.2
       9821.165       1.000000       100290.7       131379.2
       9823.159       1.000000       100363.7       131836.2
       9825.165       1.000000       100335.7       132223.2
       9827.183       1.000000       100271.7       132516.2
       9829.213       1.000000       100301.7       132984.2
       9831.255       1.000000       100289.7       133374.2
       9833.310       1.000000       100044.7       133427.2
       9835.376       1.000000       100349.7       134212.2
       9837.455       1.000000       100301.7       134387.2
       9839.546       1.000000       100330.7       134625.2
       9841.648       1.000000       100350.7       134809.2
       9843.765       1.000000       100298.7       134911.2
       9845.892       1.000000       100215.7       134977.2
       9848.031       1.000000       100193.7       135091.2
       9850.184       1.000000       100101.7       135017.2
       9852.348       1.000000       98072.70       132299.2
       9854.523       1.000000       101292.7       136458.2
       9856.712       1.000000       100830.7       135713.2
       9858.912       1.000000       100636.7       135401.2
       9861.125       1.000000       100441.7       135139.2
       9863.351       1.000000       100403.7       135128.2
       9865.587       1.000000       100254.7       134981.2
       9867.837       1.000000       100158.7       134999.2
       9870.098       1.000000       100130.7       135004.2
       9872.372       1.000000       100083.7       135034.2
       9874.657       1.000000       100132.7       135174.2
       9876.955       1.000000       100107.7       135303.2
       9879.266       1.000000       100177.7       135504.2
       9881.588       1.000000       100334.7       135847.2
       9883.923       1.000000       100623.7       136319.2
       9886.270       1.000000       100790.7       136628.2
       9888.628       1.000000       100687.7       136543.2
       9890.999       1.000000       100665.7       136658.2
       9893.383       1.000000       100600.7       136759.2
       9895.778       1.000000       100686.7       137188.2
       9898.186       1.000000       100818.7       137718.2
       9900.605       1.000000       100739.7       137946.2
       9903.037       1.000000       100702.7       138119.2
       9905.481       1.000000       100737.7       138366.2
       9907.938       1.000000       100725.7       138638.2
       9910.406       1.000000       100588.7       138775.2
       9912.887       1.000000       100583.7       139089.2
       9915.380       1.000000       100592.7       139487.2
       9917.885       1.000000       100677.7       139927.2
       9920.402       1.000000       100477.7       140029.2
       9922.932       1.000000       99860.70       139474.2
       9925.473       1.000000       100930.7       141313.2
       9928.027       1.000000       100891.7       141593.2
       9930.593       1.000000       100763.7       141715.2
       9933.171       1.000000       100554.7       141608.2
       9935.761       1.000000       100629.7       141877.2
       9938.363       1.000000       100613.7       141912.2
       9940.979       1.000000       100543.7       141788.2
       9943.605       1.000000       100468.7       141826.2
       9946.244       1.000000       100652.7       142100.2
       9948.896       1.000000       100632.7       142100.2
       9951.559       1.000000       100427.7       141889.2
       9954.234       1.000000       100366.7       141761.2
       9956.922       1.000000       100568.7       142171.2
       9959.622       1.000000       100592.7       142321.2
       9962.334       1.000000       100504.7       142358.2
       9965.059       1.000000       100478.7       142470.2
       9967.795       1.000000       100577.7       142735.2
       9970.543       1.000000       100604.7       142961.2
       9973.304       1.000000       100489.7       142946.2
       9976.077       1.000000       100458.7       143136.2
       9978.862       1.000000       100387.7       143186.2
       9981.659       1.000000       100695.7       143888.2
       9984.469       1.000000       100428.7       143682.2
       9987.291       1.000000       98953.70       141804.2
       9990.125       1.000000       101039.7       145043.2
       9992.971       1.000000       100865.7       145066.2
       9995.829       1.000000       100546.7       144883.2
       9998.699       1.000000       100400.7       145006.2
       10001.58       1.000000       100453.7       145351.2
       10004.48       1.000000       100549.7       145747.2
       10007.38       1.000000       99883.70       145049.2
       10010.30       1.000000       100356.7       145993.2
       10013.23       1.000000       100644.7       146754.2
       10016.18       1.000000       100664.7       147070.2
       10019.13       1.000000       100485.7       147101.2
       10022.10       1.000000       100428.7       147317.2
       10025.08       1.000000       100394.7       147546.2
       10028.07       1.000000       100470.7       147927.2
       10031.08       1.000000       100422.7       148070.2
       10034.09       1.000000       100325.7       148220.2
       10037.12       1.000000       100544.7       148798.2
       10040.16       1.000000       100631.7       149097.2
       10043.22       1.000000       100273.7       148812.2
       10046.28       1.000000       100319.7       149010.2
       10049.36       1.000000       100482.7       149436.2
       10052.45       1.000000       100427.7       149498.2
       10055.55       1.000000       100210.7       149302.2
       10058.67       1.000000       100246.7       149487.2
       10061.79       1.000000       100416.7       149905.2
       10064.93       1.000000       100409.7       150126.2
       10068.08       1.000000       100190.7       149934.2
       10071.24       1.000000       100264.7       150210.2
       10074.42       1.000000       100400.7       150606.2
       10077.60       1.000000       100351.7       150700.2
       10080.80       1.000000       100177.7       150577.2
       10084.01       1.000000       100388.7       151219.2
       10087.24       1.000000       100653.7       151848.2
       10090.47       1.000000       100625.7       152087.2
       10093.72       1.000000       100280.7       151754.2
       10096.98       1.000000       100297.7       152058.2
       10100.25       1.000000       100429.7       152514.2
       10103.54       1.000000       100349.7       152661.2
       10106.84       1.000000       100323.7       152923.2
       10110.14       1.000000       100228.7       153082.2
       10113.47       1.000000       100708.7       154126.2
       10116.80       1.000000       100537.7       154193.2
       10120.14       1.000000       100197.7       153974.2
       10123.50       1.000000       100169.7       154194.2
       10126.87       1.000000       100388.7       154877.2
       10130.25       1.000000       100330.7       155013.2
       10133.65       1.000000       100230.7       155188.2
       10137.05       1.000000       100255.7       155533.2
       10140.47       1.000000       100516.7       156215.2
       10143.90       1.000000       100422.7       156324.2
       10147.35       1.000000       100111.7       156120.2
       10150.80       1.000000       100093.7       156303.2
       10154.27       1.000000       100315.7       156851.2
       10157.75       1.000000       100305.7       157152.2
       10161.24       1.000000       100466.7       157621.2
       10164.74       1.000000       100844.7       158442.2
       10168.26       1.000000       100980.7       158914.2
       10171.79       1.000000       100844.7       158939.2
       10175.33       1.000000       100627.7       158821.2
       10178.88       1.000000       100724.7       159181.2
       10182.44       1.000000       100842.7       159614.2
       10186.02       1.000000       100680.7       159555.2
       10189.61       1.000000       100240.7       159112.2
       10193.21       1.000000       100980.7       160511.2
       10196.82       1.000000       100972.7       160713.2
       10200.45       1.000000       100911.7       160847.2
       10204.09       1.000000       100560.7       160548.2
       10207.74       1.000000       100585.7       160859.2
       10211.40       1.000000       101222.7       162177.2
       10215.07       1.000000       101105.7       162254.2
       10218.76       1.000000       100799.7       162122.2
       10222.46       1.000000       100888.7       162518.2
       10226.17       1.000000       100920.7       162859.2
       10229.89       1.000000       100763.7       162894.2
       10233.63       1.000000       100594.7       162952.2
       10237.37       1.000000       100151.7       162446.2
       10241.13       1.000000       101175.7       164452.2
       10244.91       1.000000       101008.7       164484.2
       10248.69       1.000000       100749.7       164369.2
       10252.49       1.000000       100897.7       164976.2
       10256.29       1.000000       100890.7       165237.2
       10260.11       1.000000       100780.7       165322.2
       10263.95       1.000000       100752.7       165616.2
       10267.79       1.000000       100844.7       166075.2
       10271.65       1.000000       101093.7       166792.2
       10275.52       1.000000       100896.7       166755.2
       10279.40       1.000000       100564.7       166518.2
       10283.29       1.000000       100800.7       167211.2
       10287.20       1.000000       101073.7       167951.2
       10291.11       1.000000       100868.7       167884.2
       10295.04       1.000000       100510.7       167554.2
       10298.99       1.000000       100752.7       168230.2
       10302.94       1.000000       100968.7       168885.2
       10306.91       1.000000       100830.7       168958.2
       10310.89       1.000000       100658.7       168948.2
       10314.88       1.000000       100733.7       169308.2
       10318.88       1.000000       101146.7       170263.2
       10322.90       1.000000       100953.7       170232.2
       10326.92       1.000000       100713.7       170136.2
       10330.96       1.000000       100564.7       170194.2
       10335.01       1.000000       100876.7       171009.2
       10339.08       1.000000       100589.7       170818.2
       10343.15       1.000000       100604.7       171158.2
       10347.24       1.000000       100894.7       171926.2
       10351.34       1.000000       100849.7       172129.2
       10355.46       1.000000       100646.7       172129.2
       10359.58       1.000000       100508.7       172233.2
       10363.72       1.000000       100173.7       171973.2
       10367.87       1.000000       100789.7       173298.2
       10372.03       1.000000       100538.7       173228.2
       10376.20       1.000000       100530.7       173533.2
       10380.39       1.000000       100757.7       174204.2
       10384.58       1.000000       100963.7       174947.2
       10388.79       1.000000       100669.7       174688.2
       10393.02       1.000000       100563.7       174842.2
       10397.25       1.000000       100655.7       175380.2
       10401.50       1.000000       100821.7       175994.2
       10405.76       1.000000       100706.7       176106.2