File: data/As/as2o5_roomt_scan1.xdi
# XDI/1.0
# Column.1: energy eV
# Column.2: i0
# Column.3: itrans
# Column.4: irefer
# Beamline.name: SSRL 4-1
# Detector.I0: N2 15cm
# Detector.I1: N2 30cm
# Detector.I2: Ar 15cm
# Element.edge: K
# Element.symbol: As
# Mono.d_spacing: 3.13550
# Mono.name: Si(111)
# Mono.notes: unfocused, detuned 40%,counter clockwise at E=12000eV
# Sample.formula: As2O5
# Sample.name: As2O5 arsenic (V) oxide
# Sample.prep: powder, mixed 1:60 with B(OH)3 by wt
# Sample.reference: GaAs powder
# Sample.temperature: room temperature
# Scan.start_time: 1997-01-19 14:49:01
# ///
#    Note: mono d_spacing is nominal!
#     exafs to K15, GaAs in IR
#     320  E XMU XMUR I0
#-------------
#   energy   i0   itrans  irefer
   11650  172917  294631  342307
   11660  172424  294449  343033
   11670  171674  293854  343250
   11680  171398  294066  344441
   11690  171030  294143  345424
   11700  169835  292723  344712
   11710  169837  293414  346421
   11720  170509  295254  349535
   11730  169481  294127  349126
   11740  168890  293799  349641
   11750  167856  292654  349214
   11760  167426  292551  350017
   11770  167669  293619  352193
   11780  166616  292422  351676
   11790  165943  291874  351898
   11800  166004  292585  353652
   11810  165653  292541  354448
   11820  164761  291468  353955
   11830  164561  291532  354679
   11840  164047  290799  354178
   11850  163691  289754  352554
   11850.8  163691  289664  352326
   11851.5  162794  287982  350147
   11852.3  163464  289053  351306
   11853  163062  288232  350110
   11853.8  162845  287709  349252
   11854.5  162784  287439  348656
   11855.3  163109  287855  348844
   11856.1  162973  287388  347864
   11856.8  162507  286351  346155
   11857.6  162470  285991  345273
   11858.3  162323  285401  343876
   11859.1  162655  285572  343144
   11859.9  162086  284162  340475
   11860.6  162674  284666  339575
   11861.4  162376  283534  336244
   11862.1  162684  283423  333671
   11862.9  163068  283235  329653
   11863.6  162566  281186  320676
   11864.4  163555  281640  312071
   11865.2  162774  278582  295215
   11865.9  161813  274578  273749
   11866.7  162443  272857  254923
   11867.4  162559  269381  235389
   11868.2  163567  265276  215218
   11868.9  162456  255026  193998
   11869.7  162004  244020  178884
   11870.5  162347  229117  164897
   11871.2  161984  208102  149000
   11872  161733  186954  134059
   11872.7  161786  163894  118626
   11873.5  162097  142447  105438
   11874.2  161942  128795  98147
   11875  162848  123583  97143
   11875.8  161281  125557  101416
   11876.5  161738  135782  111408
   11877.3  162006  149468  123875
   11878  161518  163649  136780
   11878.8  161807  174342  146772
   11879.5  162151  180007  152378
   11880.3  161459  181584  154445
   11881.1  161524  181950  155307
   11881.8  161637  181593  155376
   11882.6  161757  181137  155257
   11883.3  161903  181025  155279
   11884.1  161655  180769  155028
   11884.8  161258  180325  154573
   11885.6  162079  181037  155184
   11886.4  161846  180433  154704
   11887.1  161785  179849  154324
   11887.9  161944  179551  154118
   11888.6  161492  178779  153528
   11889.4  161259  178728  153472
   11890.1  161727  180116  154555
   11890.9  161567  181460  155705
   11891.7  161125  182759  156751
   11892.4  161352  185209  158918
   11893.2  161081  187312  160920
   11893.9  161597  189885  163462
   11894.7  161442  191643  165422
   11895.5  161376  193279  167386
   11896.2  161201  194336  168763
   11897  160970  195036  169723
   11897.7  160413  195255  170141
   11898.5  161112  196846  171548
   11899.2  161683  198190  172616
   11900  161075  198260  172472
   11901.3  161761  200713  174260
   11902.6  161362  202259  175420
   11903.9  161627  204774  177674
   11905.2  161142  206574  179444
   11906.6  160501  208023  180947
   11908  161826  212306  184852
   11909.4  161345  213635  186035
   11910.8  161284  214977  187063
   11912.2  161456  215780  187481
   11913.6  161554  215673  187046
   11915.1  162328  215730  186874
   11916.6  161570  213327  184936
   11918.1  161730  211670  184107
   11919.6  162171  210382  183856
   11921.2  162086  208475  183021
   11922.7  162027  206740  182123
   11924.3  162934  206723  182412
   11925.9  162803  205703  181715
   11927.6  163195  205764  181818
   11929.2  163464  205920  181868
   11930.9  163368  205639  181323
   11932.5  164328  206467  181525
   11934.2  164534  205979  180411
   11936  164550  204856  178715
   11937.7  165200  204295  177617
   11939.4  165431  203335  176469
   11941.2  164870  201523  174934
   11943  166199  202158  175771
   11944.8  166397  201919  175896
   11946.7  167289  202994  177105
   11948.5  167877  204031  178282
   11950.4  168657  205361  179719
   11952.3  168142  204945  179600
   11954.2  168453  205370  180259
   11956.1  168700  205537  180790
   11958.1  169432  206185  181807
   11960  170059  206747  182553
   11962  170100  206794  182572
   11964  170858  207971  183443
   11966  171458  209155  184387
   11968.1  171590  209981  185226
   11970.2  172631  211908  187506
   11972.2  173270  213299  189717
   11974.3  175159  216216  193444
   11976.5  174714  216256  194367
   11978.6  175184  217534  196097
   11980.8  175716  219131  197776
   11982.9  177006  221888  200318
   11985.1  177435  223541  201754
   11987.3  178338  225643  203318
   11989.6  178191  226115  203168
   11991.8  180764  229813  205709
   11994.1  180557  229824  204841
   11996.4  182360  232376  206207
   11998.7  182721  233132  206103
   12001  183046  233945  206402
   12003.4  183285  234691  207080
   12005.8  184432  236571  209053
   12008.1  185379  238157  210882
   12010.6  186916  240341  213226
   12013  187386  241052  214337
   12015.4  188054  241926  215685
   12017.9  189648  243924  218021
   12020.4  191139  245764  220175
   12022.9  191515  246145  221108
   12025.4  193060  247982  223427
   12027.9  193890  248862  224798
   12030.5  194380  249214  225613
   12033.1  194709  249285  226144
   12035.7  196313  250993  228108
   12038.3  197807  252518  229899
   12040.9  198798  253408  231139
   12043.6  199923  254670  232626
   12046.3  200535  255342  233586
   12049  202749  258147  236526
   12051.7  203214  258769  237390
   12054.4  204137  259984  238442
   12057.2  205070  261293  239246
   12059.9  206249  262988  240386
   12062.7  207311  264604  241722
   12065.5  209069  267096  244229
   12068.4  209669  268087  245501
   12071.2  210756  269720  247130
   12074.1  212285  271990  248965
   12077  214049  274573  250863
   12079.9  214346  275298  251021
   12082.8  215707  277407  252506
   12085.7  217886  280553  255060
   12088.7  219363  282890  257038
   12091.7  220248  284474  258675
   12094.7  220605  285375  260064
   12097.7  221894  287344  262616
   12100.8  223373  289511  265388
   12103.8  224502  291287  267800
   12106.9  227689  295834  272612
   12110  227456  295957  273406
   12113.1  229006  298432  276461
   12116.2  231192  301801  280457
   12119.4  230934  301954  281493
   12122.6  233212  305396  285499
   12125.7  234793  307841  288614
   12129  236442  310385  291644
   12132.2  237985  312779  294298
   12135.4  239223  314803  296367
   12138.7  240694  317203  298543
   12142  241034  318033  299005
   12145.3  241899  319429  300031
   12148.6  243810  322246  302410
   12152  247164  326984  306689
   12155.4  248267  328728  308193
   12158.7  250083  331431  310715
   12162.1  250531  332309  311692
   12165.6  252178  334782  314207
   12169  254239  337680  317274
   12172.5  256409  340724  320530
   12175.9  257023  341741  321916
   12179.4  259262  344881  325188
   12183  260979  347289  327632
   12186.5  262217  348981  329411
   12190  263798  351156  331786
   12193.6  266377  354733  335737
   12197.2  267845  356937  338405
   12200.8  268816  358457  340362
   12204.5  270195  360713  342987
   12208.1  272277  363876  346622
   12211.8  274518  367385  350649
   12215.5  275713  369438  353436
   12219.2  276529  370944  355860
   12222.9  278956  374620  360324
   12226.7  281222  378052  364483
   12230.4  283844  382061  369014
   12234.2  285961  385309  372774
   12238  286944  387099  375090
   12241.9  288476  389621  378002
   12245.7  289943  391993  380670
   12249.6  292143  395409  383968
   12253.4  292280  396006  384389
   12257.3  294584  399626  387713
   12261.3  297490  404112  392094
   12265.2  299128  406955  395024
   12269.2  301104  410200  398484
   12273.1  302767  412995  401458
   12277.1  305349  417094  405705
   12281.1  305766  418256  407123
   12285.2  308815  423018  412232
   12289.2  310026  425255  415031
   12293.3  313071  430039  420419
   12297.4  314609  432660  423728
   12301.5  315656  434645  426375
   12305.6  317480  437630  430027
   12309.8  319389  440786  433782
   12314  322358  445372  439041
   12318.2  323380  447277  441635
   12322.4  326372  451928  447007
   12326.6  327052  453364  449207
   12330.8  329480  457324  453910
   12335.1  331209  460255  457702
   12339.4  333510  463960  462165
   12343.7  335467  467114  466131
   12348  336369  468477  468944
   12352.4  338932  472487  472971
   12356.7  342181  477849  478335
   12361.1  343496  480201  480691
   12365.5  345058  482873  484466
   12369.9  346636  485530  487917
   12374.3  349452  489989  493011
   12378.8  352277  494391  497967
   12383.3  354128  497517  501483
   12387.8  354315  498378  502695
   12392.3  357673  503656  508489
   12396.8  360066  507637  512993
   12401.4  361385  510099  515994
   12405.9  362703  512607  519053
   12410.5  365443  517055  524172
   12415.1  368253  521728  529534
   12419.8  369220  523717  532316
   12424.4  371677  527856  537353
   12429.1  374385  532363  542802
   12433.8  377116  536953  548356
   12438.5  378883  540103  552530
   12443.2  380396  543021  556480
   12447.9  381954  545955  560588
   12452.7  385832  552243  568015
   12457.5  385863  553018  569765
   12462.3  391116  561332  579260
   12467.1  393254  565186  584209
   12471.9  394009  566999  587061
   12476.8  396057  570788  591860
   12481.7  398074  574406  596484
   12486.6  399587  577368  600267
   12491.5  402609  582436  606306
   12496.4  403926  585121  609821
   12501.4  405519  588175  613719
   12506.4  407539  591854  618262
   12511.3  411312  598052  625542
   12516.4  411977  599749  628155
   12521.4  413563  602875  632273
   12526.4  417271  609033  639615
   12531.5  419387  612917  644462
   12536.6  421745  617135  649703
   12541.7  423742  620835  654424
   12546.8  424125  622098  656672
   12552  426974  627075  662782
   12557.1  430089  632428  669363
   12562.3  430365  633559  671600
   12567.5  434298  640129  679518
   12572.8  436738  644503  685147
   12578  440497  650768  692928
   12583.3  440874  652126  695428
   12588.5  441706  654166  698726
   12593.8  445368  660364  706561
   12599.2  447688  664639  712373
   12604.5  448874  667289  716409
   12609.9  450465  670536  721139
   12615.2  455742  679264  731763
   12620.6  455899  680401  734138
   12626  458337  684927  740167
   12631.5  460308  688780  745444
   12636.9  461332  691253  749283
   12642.4  463947  696037  755512
   12647.9  464287  697508  758158
   12653.4  469467  706274  768696
   12658.9  470711  709034  772782
   12664.5  473130  713641  778867
   12670  476377  719584  786372
   12675.6  477422  722092  790265
   12681.2  479110  725741  795351
   12686.8  482086  731271  802623
   12692.5  483724  734803  807678
   12698.1  484718  737363  811746
   12703.8  487188  742132  818174
   12709.5  490385  748017  825972
   12715.2  494335  755070  835038