File: data/As/as2o3_100K_scan1.xdi
# XDI/1.0
# Column.1: energy eV
# Column.2: i0
# Column.3: itrans
# Column.4: irefer
# Beamline.name: SSRL 2-3
# Beamline.notes: vert slits = 0.6mm
# Detector.I0: N2 15cm
# Detector.I1: Ar 30cm
# Detector.I2: Ar 15cm
# Element.edge: K
# Element.symbol: As
# Mono.d_spacing: 3.13550
# Mono.name: Si(111)
# Mono.notes: unfocused, detuned 75%, clockwise at E=12000eV
# Sample.formula: As2O3
# Sample.name: As2O3 arsenious oxide
# Sample.prep: powder on tape (2 layers)
# Sample.reference: GaAs powder
# Sample.temperature: 100K
# Scan.start_time: 1997-04-19 23:43:03
# ///
#    Note: mono d_spacing is nominal!
#     exafs to K16, GaAs in IR
#     413  E XMU XMUR I0
#-------------
#   energy   i0   itrans  irefer
   11634.9  514566  94678.5  38613
   11644.9  512506  94627.5  38818
   11654.9  509390  94407.5  38959
   11665  506967  94279.5  39143
   11675.1  504346  94135.5  39321
   11684.9  502218  94072.5  39517
   11695  499017  93807.5  39634
   11705.1  496569  93691.5  39815
   11714.9  494094  93552.5  39984
   11725.1  491077  93329.5  40117
   11735  489028  93243.5  40305
   11744.9  487163  93201.5  40520
   11755.1  484094  92931.5  40651
   11765  481295  92705.5  40787
   11775  478930  92541.5  40933
   11784.9  476638  92403.5  41097
   11794.9  474755  92334.5  41301
   11804.9  472346  92117.5  41427
   11814.9  469447  91772.5  41485
   11824.9  467238  91492.5  41566
   11835  464539  91012.5  41527
   11845.1  463154  90369.5  41353
   11845.4  462196  90184.5  41266
   11846  462114  90125.5  41258
   11846.6  462143  90070.5  41220
   11846.9  462241  90083.5  41232
   11847.5  461680  89925.5  41151
   11848.1  461046  89747.5  41077
   11848.4  461087  89712.5  41059
   11849  460918  89624.5  41010
   11849.6  460370  89418.5  40912
   11849.9  459927  89322.5  40869
   11850.6  460076  89245.5  40824
   11850.9  460439  89276.5  40839
   11851.5  459990  89102.5  40748
   11852.1  459687  88934.5  40653
   11852.4  460212  88950.5  40662
   11853  460112  88842.5  40597
   11853.6  459867  88641.5  40471
   11853.9  459880  88540.5  40443
   11854.5  460276  88452.5  40359
   11855.1  460129  88203.5  40220
   11855.4  459433  87978.5  40112
   11856.1  459136  87696.5  39942
   11856.4  459026  87572.5  39860
   11857  459036  87274.5  39665
   11857.6  458881  86904.5  39449
   11857.9  458717  86736.5  39333
   11858.5  459143  86378.5  39098
   11859.1  458693  85841.5  38776
   11859.4  458309  85512.5  38564
   11860  458757  84965.5  38180
   11860.6  458747  84254.5  37701
   11861  458446  83835.5  37427
   11861.6  457975  82832.5  36749
   11861.9  457763  82230.5  36336
   11862.5  457745  80865.5  35342
   11863.1  456895  79066.5  34017
   11863.4  456349  78146.5  33337
   11864  455898  75672.5  31433
   11864.6  456260  72755.5  29179
   11864.9  455972  70774.5  27743
   11865.5  455919  66128.5  24587
   11865.9  456346  63889.5  23177
   11866.5  456933  57260.5  19489
   11867.1  457064  49623.5  15871
   11867.4  456477  45243.5  14028
   11868  456899  36502.5  10699
   11868.6  457066  28417.5  7960
   11868.9  456934  25721.5  7102
   11869.5  456382  20414.5  5500
   11870.1  456504  17615.5  4693
   11870.5  456495  17179.5  4580
   11871.1  455497  17942.5  4817
   11871.4  455326  18707.5  5041
   11872  455138  21235.5  5781
   11872.6  455295  23923.5  6580
   11872.9  455027  25245.5  6984
   11873.5  454713  27931.5  7821
   11874.1  455038  30526.5  8677.01
   11874.4  455049  31610.5  9040.01
   11875.1  454813  34127.5  9934.99
   11875.4  454644  35274.5  10356
   11876  454752  37499.5  11196
   11876.6  454788  39196.5  11881
   11876.9  454475  39687.5  12097
   11877.5  454480  40358.5  12441
   11878.1  454657  40246.5  12509
   11878.4  454487  39886.5  12445
   11879  453865  38737.5  12153
   11879.4  453978  38163.5  11999
   11880  454368  36787.5  11619
   11880.6  454190  35474.5  11244
   11880.9  453849  34984.5  11107
   11881.5  453440  34478.5  10967
   11882.1  453617  34537.5  10993
   11882.4  453329  34675.5  11038
   11883  452408  35201.5  11198
   11883.7  452155  35877.5  11412
   11884  452172  36222.5  11519
   11884.6  451783  36795.5  11706
   11884.9  451123  36963.5  11760
   11885.5  451037  37409.5  11920
   11886.1  451151  37841.5  12067
   11886.4  451199  38049.5  12136
   11887  450823  38505.5  12299
   11887.6  450913  39029.5  12466
   11888  451261  39282.5  12550
   11888.6  451258  39818.5  12718
   11888.9  450931  40036.5  12795
   11889.5  450913  40517.5  12935
   11890.1  450976  40997.5  13079
   11890.4  450876  41208.5  13149
   11891  450758  41760.5  13311
   11891.6  451004  42444.5  13530
   11892  451084  42820.5  13652
   11892.6  450329  43474.5  13879
   11892.9  450298  43757.5  13975
   11893.5  450776  44392.5  14210
   11894.1  450325  44766.5  14379
   11894.4  450227  44907.5  14448
   11895  450024  45078.5  14559
   11895.6  450442  45209.2  14655.8
   11896.3  450572  45261.5  14711
   11896.9  449971  45237.3  14729.8
   11897.5  449960  45287.6  14758.2
   11898.4  450573  45427.4  14801
   11899  450334  45455.6  14785.3
   11899.7  450083  45499.4  14786.2
   11900.6  450327  45685.8  14818.6
   11901.2  450869  45872.6  14871.5
   11902.1  451058  46112.9  14949
   11903  451262  46366.7  15041.9
   11903.7  451694  46529.1  15097.4
   11904.6  452523  46790.9  15204.4
   11905.5  452969  46990.3  15294.9
   11906.4  452705  47109.1  15348.9
   11907.4  453076  47252.5  15418.5
   11908.3  453736  47274.4  15438.6
   11909.2  454114  47101.7  15381.1
   11910.1  454715  46783.7  15270.3
   11911.1  455002  46325  15106.9
   11912.3  456177  45712  14885
   11913.2  456719  45283.4  14727.7
   11914.2  457251  44882.3  14591.9
   11915.4  457738  44537.7  14484.6
   11916.3  458686  44485.7  14492.8
   11917.6  459715  44534.1  14566.6
   11918.8  459607  44518.1  14630.8
   11919.7  460820  44566.6  14704.6
   11921  461979  44462.5  14723.9
   11922.2  462917  44185  14665.7
   11923.4  463576  43778  14554.1
   11924.7  464453  43401.5  14443
   11925.9  465218  43081.5  14339.3
   11927.1  466802  42973  14310.2
   11928.4  467723  42977  14305.6
   11929.6  468856  43046.5  14314.6
   11930.9  470218  43084.6  14306
   11932.4  471503  43077.1  14253
   11933.7  472958  43189.1  14255.5
   11934.9  474375  43405.7  14284.5
   11936.4  475340  43638.8  14318.1
   11938  476556  43821.4  14353.1
   11939.2  477783  43886.4  14378.7
   11940.8  478170  43736  14355.8
   11942.3  478983  43553.1  14330.4
   11943.6  481058  43560.7  14356.6
   11945.1  483636  43641.8  14406.2
   11946.7  486512  43936.4  14531.4
   11948.2  487990  44308.6  14674.1
   11949.8  490104  44872.2  14888.3
   11951.3  491294  45375.3  15078
   11952.9  492546  45775  15243.3
   11954.8  494387  46148.2  15411
   11956.3  496418  46472.8  15560.3
   11957.9  498052  46784  15695.1
   11959.7  500093  47249.7  15860.4
   11961.3  500851  47588.8  15972.3
   11963.2  502585  47959.5  16085.7
   11964.7  505804  48375.7  16223.5
   11966.6  507863  48675.5  16350
   11968.5  509394  48997.7  16510.9
   11970  511178  49305.4  16691.3
   11971.9  513227  49622.7  16911.3
   11973.8  515640  49945.4  17113.8
   11975.6  518234  50317.6  17316.8
   11977.5  519872  50630.4  17464.3
   11979.4  522397  51127.6  17658.3
   11981.3  524427  51661.4  17855.9
   11983.1  526026  52177.7  18041
   11985  526477  52506.5  18145.6
   11987.2  528750  52900.8  18244.7
   11989.1  532048  53307.6  18339.3
   11991.3  536622  53822.9  18441.5
   11993.2  538930  54113.7  18483.2
   11995.3  540075  54243  18451.4
   11997.2  542972  54435.9  18477.1
   11999.4  545836  54525.2  18481.3
   12001.3  547769  54463.1  18475.1
   12003.5  550470  54426.5  18493.4
   12005.7  552745  54328.3  18509.1
   12007.9  554893  54208.7  18509.5
   12010.1  556793  54106.6  18517.3
   12012.3  559373  54235  18621.6
   12014.5  562678  54558.9  18795.5
   12016.7  567027  55066.3  19019.9
   12018.9  569715  55423.1  19194.8
   12021.1  572065  55707.6  19355.3
   12023.6  574973  56044.5  19549.2
   12025.8  577654  56349.9  19719.7
   12028  579042  56490.9  19804.6
   12030.5  583423  56848.4  19988.2
   12032.7  586033  57083.3  20118.2
   12035.3  589181  57491.8  20307.7
   12037.8  591258  57811.7  20468.8
   12040  594535  58260.2  20674.4
   12042.5  597796  58719.2  20875.5
   12045  600576  59117.7  21070.1
   12047.6  603500  59532.7  21267.2
   12050.1  606670  59997.2  21470.9
   12052.6  609204  60438.3  21629.1
   12055.2  610762  60748.8  21723.8
   12057.7  613385  61175.8  21854
   12060.2  619037  61879.4  22101.7
   12062.8  623513  62433.4  22322
   12065.3  626227  62710  22468.8
   12068.1  628758  62866.1  22570.1
   12070.7  632474  63139.6  22670.9
   12073.2  634739  63412.7  22755.3
   12076.1  638314  64041.3  22951.1
   12078.6  641502  64679.4  23156.5
   12081.5  644552  65378  23387.4
   12084.3  647861  66012.1  23599.8
   12086.9  651898  66624.8  23828.7
   12089.7  654900  67083.9  24019.2
   12092.6  658860  67563.5  24265.2
   12095.5  661430  67800.7  24440.7
   12098.3  664744  68042.3  24624.7
   12101.2  667841  68288.5  24796.2
   12104.1  672686  68833.1  25078.3
   12107  675638  69278.3  25317.8
   12109.8  679285  69854  25605.9
   12112.7  680930  70277.2  25851.5
   12115.9  688191  71301.9  26336.6
   12118.8  690168  71655.1  26561.3
   12121.6  695440  72258.8  26883.5
   12124.9  697597  72478  27070.1
   12127.7  701717  72933.8  27311.4
   12130.9  704186  73282  27498.1
   12133.8  709432  73965.8  27778.3
   12137  711280  74304  27929.1
   12140.2  717737  75027.8  28203.4
   12143.4  720378  75189  28232.2
   12146.3  723943  75412.8  28320.5
   12149.6  727706  75640.1  28406.4
   12152.8  731603  75866.9  28500.7
   12156  734191  75903.2  28537.6
   12159.2  738446  76229  28688
   12162.4  743058  76856.4  28959.9
   12165.6  744883  77338.1  29196.4
   12169.2  750868  78336.5  29624.3
   12172.4  754276  79002.3  29936.8
   12175.6  758316  79718.6  30276.8
   12178.9  762791  80456.5  30604.3
   12182.4  766172  81177.9  30921.4
   12185.7  771175  82071.8  31291.9
   12189.2  773814  82696.1  31608
   12192.5  778857  83469  31974.6
   12196  781939  83985.4  32258.7
   12199.6  785287  84472.3  32535.3
   12202.8  788651  84915.7  32769.5
   12206.4  792486  85357.6  33022.1
   12210  797374  85890.1  33320.4
   12213.5  801190  86311  33588.1
   12217.1  806061  86859.4  33925.3
   12220.7  810490  87385.4  34240
   12224.3  813401  87702.8  34485.3
   12227.8  817623  88155.8  34764.1
   12231.4  822221  88675.3  35058.4
   12235  825873  89218.3  35353.2
   12238.9  829249  89860.8  35695.6
   12242.5  832902  90573.7  36063.4
   12246.1  838014  91489.2  36481.8
   12250  842662  92419.3  36892.7
   12253.6  846053  93127.8  37173.2
   12257.5  850411  94016.8  37565.1
   12261.2  854496  94823.3  37907.6
   12265.1  857024  95428.4  38209.6
   12269  862335  96183.9  38569
   12272.6  867060  96764  38874.1
   12276.6  871288  97253.5  39126.6
   12280.5  875587  97760.6  39395.7
   12284.4  879674  98302.2  39673.3
   12288.4  884158  98813.3  39979.4
   12292.3  887068  99107.9  40203
   12296.3  891142  99578  40507.1
   12300.2  895960  100144  40832.8
   12304.2  899780  100633  41148
   12308.2  903997  101234  41495.7
   12312.1  907386  101736  41799.9
   12316.1  912779  102531  42248.6
   12320.4  916011  103133  42611.9
   12324.3  920223  103884  43031.6
   12328.7  924460  104690  43487.9
   12332.6  927451  105350  43888.7
   12336.6  931372  106094  44310.1
   12340.9  937520  106991  44796.9
   12345.2  940638  107509  45147.3
   12349.2  944336  108141  45498.2
   12353.5  949957  109071  45987.6
   12357.9  954070  109850  46426.5
   12362.2  957596  110583  46849
   12366.2  963780  111555  47337.9
   12370.5  966094  112101  47691.4
   12374.9  971472  112941  48156.5
   12379.2  974427  113444  48477
   12383.5  977925  113981  48798
   12387.9  982497  114688  49183.6
   12392.6  986118  115301  49535.6
   12396.9  991480  116135  49991.3
   12401.3  994508  116697  50328.4
   12405.6  999692  117475  50756
   12410.3  1.00357e+06  118129  51144.2
   12414.7  1.00755e+06  118771  51532.9
   12419  1.01134e+06  119438  51951.1
   12423.8  1.01443e+06  120075  52354.8
   12428.1  1.0192e+06  120937  52875.1
   12432.8  1.0247e+06  121975  53471.8
   12437.6  1.02767e+06  122696  53934.1
   12441.9  1.03256e+06  123618  54480.9
   12446.7  1.03796e+06  124614  55080.2
   12451.4  1.04002e+06  125140  55496
   12456.1  1.04346e+06  125823  55923.4
   12460.5  1.04792e+06  126588  56429.3
   12465.3  1.04912e+06  126994  56764.7
   12470  1.05616e+06  128089  57407.6
   12474.7  1.05989e+06  128753  57849
   12479.5  1.06288e+06  129291  58264
   12484.2  1.0662e+06  129886  58685.5
   12489  1.07029e+06  130536  59117.5
   12494.1  1.07341e+06  131116  59496
   12498.9  1.07714e+06  131742  59931
   12503.6  1.08251e+06  132552  60422.5
   12508.4  1.08623e+06  133224  60871.6
   12513.5  1.08876e+06  133770  61279.2
   12518.3  1.09497e+06  134799  61889.3
   12523.4  1.09756e+06  135489  62355
   12528.2  1.10175e+06  136343  62902.1
   12533.4  1.10369e+06  136940  63334.7
   12538.1  1.1086e+06  137901  63909
   12543.3  1.1116e+06  138660  64432.7
   12548.1  1.11558e+06  139532  64988.9
   12553.2  1.11864e+06  140335  65502.6
   12558.4  1.1239e+06  141361  66155.9
   12563.6  1.12603e+06  141999  66635.7
   12568.7  1.13289e+06  143206  67397
   12573.5  1.13532e+06  143801  67829.8
   12578.7  1.1401e+06  144710  68431.2
   12583.9  1.14258e+06  145285  68903
   12589.1  1.14577e+06  145969  69407.4
   12594.2  1.14947e+06  146647  69927.3
   12599.4  1.15297e+06  147323  70462.7
   12605  1.1543e+06  147738  70867.7
   12610.2  1.15981e+06  148710  71545.1
   12615.4  1.16291e+06  149403  72072.1
   12620.6  1.16724e+06  150280  72690.6
   12625.8  1.17197e+06  151236  73350.6
   12631.3  1.17342e+06  151775  73810.2
   12636.6  1.17886e+06  152865  74545.2
   12642.1  1.18184e+06  153696  75126.8
   12647.4  1.18479e+06  154476  75709.9
   12652.9  1.18909e+06  155463  76399.5
   12658.2  1.1921e+06  156250  76962.6
   12663.8  1.1946e+06  156996  77525.3
   12669  1.1971e+06  157664  78053.5
   12674.6  1.19993e+06  158389  78621.1
   12680.2  1.20473e+06  159370  79308.3
   12685.8  1.20495e+06  159724  79686.1
   12691.1  1.2119e+06  160919  80486.3
   12696.7  1.21389e+06  161483  80987.1
   12702.3  1.21785e+06  162307  81650.4
   12708  1.21988e+06  162896  82147.2
   12713.6  1.2223e+06  163520  82682.6
   12719.3  1.22696e+06  164441  83374.4
   12724.9  1.22664e+06  164723  83762.8
   12730.6  1.23136e+06  165716  84486.6
   12736.2  1.2336e+06  166362  85074
   12741.9  1.23686e+06  167203  85737
   12747.9  1.24044e+06  168136  86475.4
   12753.6  1.24351e+06  168971  87138.4
   12759.2  1.24649e+06  169812  87831.9
   12764.9  1.25031e+06  170762  88555.9
   12771  1.2532e+06  171622  89259.4
   12776.7  1.25617e+06  172463  89969.4
   12782.4  1.25695e+06  172983  90488
   12788.4  1.2587e+06  173684  91139
   12794.1  1.26381e+06  174783  91943.7
   12800.2  1.26414e+06  175261  92452.8
   12806.3  1.26989e+06  176419  93365.4
   12812  1.27099e+06  176962  93879.6
   12818.1  1.2771e+06  178207  94815.2
   12824.2  1.27739e+06  178639  95301.4
   12829.9  1.28173e+06  179622  96074.2
   12836  1.28106e+06  179920  96504.4
   12842.1  1.28235e+06  180491  97090.2
   12848.2  1.28824e+06  181727  98009.4
   12854.4  1.29108e+06  182545  98732.2
   12860.5  1.29315e+06  183289  99424.6
   12866.3  1.29366e+06  183767  99940.4
   12872.4  1.29553e+06  184483  100602
   12878.6  1.29937e+06  185500  101431
   12885.1  1.30053e+06  186175  102113