File: data/As/as2o3_10K_scan3.xdi
# XDI/1.0
# Column.1: energy eV
# Column.2: i0
# Column.3: itrans
# Column.4: irefer
# Beamline.name: SSRL 2-3
# Beamline.notes: vert slits = 0.6mm
# Detector.I0: N2 15cm
# Detector.I1: Ar 30cm
# Detector.I2: Ar 15cm
# Element.edge: K
# Element.symbol: As
# Mono.d_spacing: 3.13550
# Mono.name: Si(111)
# Mono.notes: unfocused, detuned 75%, clockwise at E=12000eV
# Sample.formula: As2O3
# Sample.name: As2O3 arsenious oxide
# Sample.prep: powder on tape (5 layers)
# Sample.reference: GaAs powder
# Sample.temperature: 10K
# Scan.start_time: 1997-04-19 19:47:10
# ///
#    Note: mono d_spacing is nominal!
#     exafs to K16, GaAs in IR
#     413  E XMU XMUR I0
#-------------
#   energy   i0   itrans  irefer
   11634.9  534204  60646.5  24869
   11644.9  531959  60682.5  25025
   11654.9  529036  60631.5  25156
   11665  526839  60657.5  25302
   11675.1  523828  60603.5  25443
   11684.9  521136  60562.5  25574
   11695  517618  60453.5  25673
   11705.1  514905  60404.5  25800
   11714.9  513172  60480.5  25976
   11725.1  510393  60424.5  26107
   11735  507781  60363.5  26223
   11744.9  504786  60283.5  26339
   11755.1  502815  60288.5  26491
   11765  499899  60195.5  26602
   11775  497622  60157.5  26733
   11784.9  495462  60092.5  26853
   11794.9  492579  59935.5  26929
   11804.9  489238  59670.5  26963
   11814.9  486739  59437.5  26998
   11824.9  484981  59164.5  27005
   11835  482140  58470.5  26805
   11845.1  479484  57088.5  26258
   11845.4  479220  56991.5  26206
   11846  479029  56858.5  26152
   11846.6  479152  56769.5  26119
   11846.9  476738  56432.5  25960
   11847.5  479898  56672.5  26062
   11848.1  479135  56441.5  25957
   11848.4  479059  56364.5  25922
   11849  478832  56180.5  25838
   11849.6  478339  55948.5  25724
   11849.9  478384  55870.5  25688
   11850.6  477956  55637.5  25581
   11850.9  477914  55527.5  25525
   11851.5  477784  55302.5  25421
   11852.1  478292  55104.5  25326
   11852.4  478202  55004.5  25274
   11853  478314  54740.5  25134
   11853.6  477857  54403.5  24978
   11853.9  477827  54228.5  24891
   11854.5  478592  53940.5  24749
   11855.1  478195  53516.5  24547
   11855.4  477805  53292.5  24438
   11856.1  477501  52787.5  24180
   11856.4  477546  52556.5  24067
   11857  477896  52009.5  23793
   11857.6  477472  51347.5  23458
   11857.9  476870  51027.5  23298
   11858.5  476847  50259.5  22909
   11859.1  477527  49481.5  22511
   11859.4  476768  48977.5  22252
   11860  476565  47878.5  21684
   11860.6  476857  46713.5  21089
   11861  476947  46179.5  20814
   11861.6  476607  44614.5  20001
   11861.9  476122  43775.5  19569
   11862.5  476352  41809.5  18556
   11863.1  476008  39483.5  17331
   11863.4  475691  38441.5  16782
   11864  475129  35398.5  15180
   11864.6  474958  31935.5  13380
   11864.9  474831  30120.5  12451
   11865.5  474870  25880.5  10328
   11865.9  474324  24080.5  9458
   11866.5  474807  19229.5  7216
   11867.1  475192  14490.5  5170
   11867.4  474648  12408.5  4322
   11868  474551  8320.5  2746
   11868.6  474991  5097.5  1600
   11868.9  475262  4142.5  1275
   11869.5  475060  2195.5   648
   11870.1  474431  1134.5   325
   11870.5  474573   856.5   243
   11871.1  474406   604.5   170
   11871.4  473845   591.5   166
   11872  473379   683.5   191
   11872.6  473087   885.5   248
   11872.9  473418  1002.5   282
   11873.5  473173  1311.5   372
   11874.1  472427  1676.5   481
   11874.4  472443  1855.5   533
   11875.1  473700  2340.5   684
   11875.4  473161  2586.5   764
   11876  472944  3156.5   949
   11876.6  473369  3675.5  1118
   11876.9  473419  3855.5  1184
   11877.5  473243  4193.5  1298
   11878.1  472787  4303.5  1343
   11878.4  472853  4271.5  1337
   11879  472750  4036.5  1274
   11879.4  472821  3900.5  1232
   11880  472538  3478.5  1102
   11880.6  472270  3058.5   974
   11880.9  472350  2890.5   921
   11881.5  472421  2649.5   847
   11882.1  472088  2566.5   819
   11882.4  472026  2574.5   823.001
   11883  471876  2673.5   855.001
   11883.7  471423  2828.5   905
   11884  471154  2908.5   929
   11884.6  470578  3080.5   987.001
   11884.9  470890  3142.5  1007
   11885.5  470436  3275.5  1049
   11886.1  470335  3393.5  1089
   11886.4  470227  3444.5  1106
   11887  470849  3577.5  1151
   11887.6  470678  3715.5  1196
   11888  470375  3776.5  1216
   11888.6  470879  3943.5  1269
   11888.9  470831  4015.5  1292
   11889.5  470730  4171.5  1342
   11890.1  470485  4318.5  1389
   11890.4  470296  4380.5  1406
   11891  470531  4566.5  1468
   11891.6  470097  4786.5  1536
   11892  469800  4910.5  1574
   11892.6  469734  5191.5  1665
   11892.9  469836  5306.5  1705
   11893.5  469725  5577.5  1798
   11894.1  469014  5777.5  1865
   11894.4  469022  5861.5  1896
   11895  469254  5979.5  1941
   11895.6  469565  6046.25  1970.76
   11896.3  468814  6063.52  1984.04
   11896.9  468946  6080.29  1994.84
   11897.5  469299  6097.56  2003.15
   11898.4  469580  6128.35  2011.99
   11899  469185  6142.64  2016.35
   11899.7  469433  6169.44  2021.23
   11900.6  469704  6217.75  2032.62
   11901.2  469847  6265.56  2047.54
   11902.1  469866  6348.89  2074.97
   11903  469986  6450.72  2110.93
   11903.7  470395  6515.06  2132.4
   11904.6  470949  6599.91  2161.39
   11905.5  471198  6669.26  2186.9
   11906.4  471304  6740.12  2210.93
   11907.4  471841  6810.5  2238.49
   11908.3  472309  6835.37  2248.56
   11909.2  473099  6785.75  2230.14
   11910.1  473291  6647.65  2186.26
   11911.1  474250  6442.05  2116.88
   11912.3  475181  6120.96  2009.03
   11913.2  475785  5887.38  1932.7
   11914.2  476295  5674.3  1858.89
   11915.4  476965  5476.73  1793.59
   11916.3  478398  5409.67  1771.82
   11917.6  478839  5375.12  1766.56
   11918.8  479506  5394.08  1784.83
   11919.7  480057  5405.54  1793.61
   11921  480693  5364.51  1785.92
   11922.2  482814  5260.99  1758.74
   11923.4  483812  5093.97  1705.08
   11924.7  484511  4915.47  1646.94
   11925.9  485229  4753.47  1594.32
   11927.1  486290  4650.98  1558.23
   11928.4  488116  4619  1546.64
   11929.6  489515  4626.52  1547.58
   11930.9  490225  4622.56  1545.04
   11932.4  491843  4593.1  1529.02
   11933.7  493046  4582.14  1523.52
   11934.9  494348  4613.7  1528.54
   11936.4  495624  4691.76  1548.07
   11938  496702  4751.34  1566.13
   11939.2  497583  4757.42  1567.7
   11940.8  498687  4705  1550.8
   11942.3  499503  4611.1  1525.41
   11943.6  501100  4545.7  1502.55
   11945.1  504013  4483.81  1484.2
   11946.7  506951  4468.43  1482.37
   11948.2  507862  4521.56  1503.06
   11949.8  510596  4663.19  1554.27
   11951.3  511559  4817.33  1609.01
   11952.9  513740  4950.98  1656.26
   11954.8  514370  5037.14  1690.02
   11956.3  516457  5096.8  1714.32
   11957.9  519261  5165.97  1742.12
   11959.7  521275  5276.66  1780.45
   11961.3  523284  5396.84  1823.3
   11963.2  523954  5495.54  1853.66
   11964.7  526934  5560.74  1878.55
   11966.6  528014  5594.45  1887.96
   11968.5  530541  5665.68  1921.88
   11970  532978  5743.4  1955.33
   11971.9  535024  5810.63  1993.29
   11973.8  537748  5858.38  2020.77
   11975.6  539328  5896.62  2042.77
   11977.5  541041  5955.39  2066.3
   11979.4  543243  6061.65  2106.34
   11981.3  545354  6220.43  2165.9
   11983.1  547062  6394.7  2225.98
   11985  549098  6554.49  2280.58
   11987.2  550056  6654.79  2316.7
   11989.1  553634  6718.59  2330.34
   11991.3  557467  6770.91  2338.5
   11993.2  559344  6812.73  2343.17
   11995.3  561875  6854.05  2350.37
   11997.2  563296  6834.89  2339.08
   11999.4  566863  6777.23  2313.32
   12001.3  569678  6688.08  2286.08
   12003.5  572770  6570.44  2249.35
   12005.7  576129  6449.31  2212.14
   12007.9  577495  6305.69  2167.46
   12010.1  580023  6190.56  2135.29
   12012.3  581336  6126.95  2116.64
   12014.5  584684  6157.85  2136.51
   12016.7  588915  6256.25  2175.9
   12018.9  592444  6364.17  2216.81
   12021.1  594306  6426.59  2246.25
   12023.6  598601  6507.52  2286.19
   12025.8  601452  6562.95  2311.66
   12028  603091  6579.9  2322.65
   12030.5  606052  6576.35  2330.16
   12032.7  609970  6583.31  2336.18
   12035.3  613421  6631.77  2356.73
   12037.8  616160  6698.75  2386.8
   12040  618953  6763.23  2416.38
   12042.5  623211  6845.23  2450.49
   12045  625825  6897.72  2477.11
   12047.6  628038  6943.72  2497.25
   12050.1  630791  7003.24  2523.92
   12052.6  634589  7101.26  2562.1
   12055.2  636367  7180.79  2583.8
   12057.7  639421  7256.83  2608.02
   12060.2  644541  7372.38  2653.76
   12062.8  647597  7461.43  2682.02
   12065.3  652004  7520.98  2710.8
   12068.1  655650  7487.05  2712.1
   12070.7  658688  7419.63  2684.92
   12073.2  663269  7420.71  2686.26
   12076.1  665748  7542.31  2725.11
   12078.6  669384  7751.4  2797.49
   12081.5  671550  7968.01  2873.39
   12084.3  674772  8158.12  2940.8
   12086.9  678868  8300.75  2996.74
   12089.7  683588  8409.88  3035.19
   12092.6  687184  8469.51  3070.16
   12095.5  689108  8453.66  3073.66
   12098.3  693506  8417.31  3070.67
   12101.2  696268  8345.47  3055.2
   12104.1  700272  8350.14  3059.25
   12107  704176  8412.31  3094.82
   12109.8  707943  8529.01  3146.91
   12112.7  708305  8648.19  3203.52
   12115.9  715324  8883.89  3306.65
   12118.8  717378  8993.1  3356.3
   12121.6  723023  9071.81  3397.47
   12124.9  726009  9054.04  3402.15
   12127.7  730331  9051.77  3414.36
   12130.9  732983  9075.01  3430.09
   12133.8  738497  9200.75  3483.33
   12137  739879  9343.01  3537.1
   12140.2  746172  9505.78  3597.38
   12143.4  748787  9501.04  3594.19
   12146.3  753649  9466.81  3579.51
   12149.6  756785  9408.1  3559.35
   12152.8  760702  9359.89  3541.71
   12156  764421  9232.2  3490.6
   12159.2  769279  9109  3443
   12162.4  773317  9131.32  3459.92
   12165.6  775326  9297.15  3528.36
   12169.2  781036  9572.48  3639.32
   12172.4  784750  9753.31  3711.79
   12175.6  789572  9903.66  3778.79
   12178.9  793662  10011.5  3824.31
   12182.4  796949  10163.9  3890.35
   12185.7  800919  10383.8  3978.9
   12189.2  803869  10611.1  4074.98
   12192.5  809177  10797  4153.57
   12196  813695  10908.4  4205.69
   12199.6  816305  10970.3  4245.32
   12202.8  822094  11050.7  4288.48
   12206.4  825549  11073.6  4306.15
   12210  829066  11072.1  4318.34
   12213.5  833765  11079  4330.05
   12217.1  838934  11121.4  4369.28
   12220.7  841765  11165.4  4394.03
   12224.3  844996  11181.8  4416.3
   12227.8  850441  11174.8  4425.09
   12231.4  854557  11163.3  4434.4
   12235  858871  11224.3  4467.23
   12238.9  862420  11352.7  4527.57
   12242.5  866332  11544.7  4613.44
   12246.1  869826  11787.2  4717.83
   12250  874170  12054.2  4828.73
   12253.6  879697  12275.8  4918.16
   12257.5  880330  12450.8  4992.1
   12261.2  887564  12725.3  5108.57
   12265.1  891132  12925.4  5192.55
   12269  891996  12990.9  5230.06
   12272.6  900086  13043  5265.08
   12276.6  905225  12989.5  5249.62
   12280.5  907147  12954.6  5238.68
   12284.4  914429  13075.2  5297.26
   12288.4  918125  13113.3  5326.36
   12292.3  920719  13045.9  5307.98
   12296.3  924248  13024  5312.12
   12300.2  931080  13115.6  5368.78
   12304.2  936349  13191.7  5413.95
   12308.2  939338  13277.3  5464.65
   12312.1  943214  13400.4  5528.86
   12316.1  948149  13551.1  5600.6
   12320.4  952500  13704.2  5683.86
   12324.3  956070  13887.9  5778.63
   12328.7  960578  14141.1  5900.93
   12332.6  964939  14369.7  6016.74
   12336.6  968499  14556.9  6112.08
   12340.9  974340  14643.6  6162.93
   12345.2  978087  14553.8  6140.3
   12349.2  982328  14537.5  6147.19
   12353.5  986520  14656.7  6208.6
   12357.9  989318  14848.4  6304.53
   12362.2  994384  15074.7  6418.98
   12366.2  998646  15256.4  6505.95
   12370.5  1.00384e+06  15469.6  6611.44
   12374.9  1.00791e+06  15631.4  6695.45
   12379.2  1.0115e+06  15697.6  6734.97
   12383.5  1.01584e+06  15726.4  6758.02
   12387.9  1.01796e+06  15751.7  6790.58
   12392.6  1.02093e+06  15856.5  6853.67
   12396.9  1.02839e+06  16079.8  6950.28
   12401.3  1.03301e+06  16290.6  7059.4
   12405.6  1.03798e+06  16459.9  7143.05
   12410.3  1.04053e+06  16510.7  7189.21
   12414.7  1.04552e+06  16582  7226.89
   12419  1.05087e+06  16647.8  7277.09
   12423.8  1.05543e+06  16759.2  7339.81
   12428.1  1.05682e+06  16854  7398.05
   12432.8  1.06149e+06  17048.4  7504.82
   12437.6  1.06585e+06  17259.2  7620.09
   12441.9  1.07097e+06  17503.6  7751.9
   12446.7  1.07414e+06  17722.4  7869.21
   12451.4  1.07889e+06  17854.8  7958.05
   12456.1  1.0841e+06  17951.7  8021.41
   12460.5  1.08561e+06  18033.1  8073.28
   12465.3  1.0875e+06  18180  8164.68
   12470  1.09497e+06  18387.4  8276.59
   12474.7  1.099e+06  18515.4  8361.03
   12479.5  1.10145e+06  18606.8  8424.98
   12484.2  1.10763e+06  18735.7  8504.46
   12489  1.11256e+06  18862.2  8576.45
   12494.1  1.11541e+06  18964.1  8648.96
   12498.9  1.11944e+06  19028.6  8700.99
   12503.6  1.12102e+06  19061.5  8734.55
   12508.4  1.12653e+06  19214  8821.61
   12513.5  1.12958e+06  19293  8885.21
   12518.3  1.13388e+06  19415.5  8957.32
   12523.4  1.13952e+06  19627.5  9074.94
   12528.2  1.14098e+06  19790  9173.1
   12533.4  1.14448e+06  19959  9276.76
   12538.1  1.15103e+06  20136.5  9373.95
   12543.3  1.15328e+06  20278.6  9465.66
   12548.1  1.15914e+06  20515.1  9600.88
   12553.2  1.16139e+06  20744.1  9728.63
   12558.4  1.16481e+06  20948.7  9851.89
   12563.6  1.16899e+06  21125.7  9961.67
   12568.7  1.17228e+06  21307.3  10077
   12573.5  1.17582e+06  21488.4  10180.8
   12578.7  1.18083e+06  21673  10300.2
   12583.9  1.18385e+06  21802.1  10384
   12589.1  1.18679e+06  21929.7  10473.4
   12594.2  1.19266e+06  22083.8  10573.3
   12599.4  1.1954e+06  22100.4  10610.7
   12605  1.19774e+06  22140.5  10659.7
   12610.2  1.20201e+06  22284.1  10771.1
   12615.4  1.20478e+06  22442.3  10872.1
   12620.6  1.20911e+06  22628.9  10991.6
   12625.8  1.21521e+06  22852.1  11130.6
   12631.3  1.21691e+06  22991.7  11220.1
   12636.6  1.22091e+06  23155.9  11334.2
   12642.1  1.22499e+06  23368.6  11472.8
   12647.4  1.22908e+06  23612.8  11622.9
   12652.9  1.23055e+06  23835.5  11764.5
   12658.2  1.23446e+06  24080.7  11925.6
   12663.8  1.23694e+06  24274.4  12047.3
   12669  1.24437e+06  24490.6  12184.5
   12674.6  1.24511e+06  24590.3  12258.1
   12680.2  1.24876e+06  24747.5  12374.4
   12685.8  1.25042e+06  24869.3  12456.1
   12691.1  1.25574e+06  25030.5  12578.3
   12696.7  1.25823e+06  25123.3  12649.1
   12702.3  1.26021e+06  25250.6  12760.4
   12708  1.26633e+06  25491.3  12909.2
   12713.6  1.26815e+06  25601.6  13007.5
   12719.3  1.27202e+06  25717.4  13101.4
   12724.9  1.27445e+06  25829.7  13196.7
   12730.6  1.27924e+06  26023.5  13332.6
   12736.2  1.28001e+06  26151.8  13423
   12741.9  1.28387e+06  26395.6  13587
   12747.9  1.28654e+06  26660.9  13764.4
   12753.6  1.28961e+06  26891.8  13932.4
   12759.2  1.29243e+06  27071.1  14056.9
   12764.9  1.29383e+06  27239.9  14184.9
   12771  1.29954e+06  27532.3  14381.4
   12776.7  1.3018e+06  27694.1  14513.4
   12782.4  1.30703e+06  27913.5  14674
   12788.4  1.30831e+06  28083.4  14798.1
   12794.1  1.31108e+06  28283.8  14938.7
   12800.2  1.31329e+06  28452.7  15069.8
   12806.3  1.31612e+06  28596.1  15182.4
   12812  1.31807e+06  28729  15297.6
   12818.1  1.31908e+06  28867.4  15411.3
   12824.2  1.32201e+06  29062.3  15553.5
   12829.9  1.3254e+06  29258.8  15703.2
   12836  1.32933e+06  29447.7  15842.4
   12842.1  1.33166e+06  29629.2  15999.2
   12848.2  1.33719e+06  29908.1  16177.4
   12854.4  1.3368e+06  30052.6  16305.2
   12860.5  1.33995e+06  30257.5  16462.5
   12866.3  1.34108e+06  30404  16578.4
   12872.4  1.34417e+06  30595  16742.7
   12878.6  1.34759e+06  30817.5  16902.6
   12885.1  1.3487e+06  31018.5  17064