File: data/As/as2o5_100K_scan1.xdi
# XDI/1.0
# Column.1: energy eV
# Column.2: i0
# Column.3: itrans
# Column.4: irefer
# Beamline.name: SSRL 2-3
# Beamline.notes: vert slits = 0.6mm
# Detector.I0: N2 15cm
# Detector.I1: Ar 30cm
# Detector.I2: Ar 15cm
# Element.edge: K
# Element.symbol: As
# Mono.d_spacing: 3.13550
# Mono.name: Si(111)
# Mono.notes: unfocused, detuned 75%, clockwise at E=12000eV
# Sample.formula: As2O5
# Sample.name: As2O5 arsenic (V) oxide
# Sample.prep: powder on tape (5 layers)
# Sample.reference: GaAs powder
# Sample.temperature: 100K
# Scan.start_time: 1997-04-19 21:41:34
# ///
#    Note: mono d_spacing is nominal!
#     exafs to K16, GaAs in IR
#     413  E XMU XMUR I0
#-------------
#   energy   i0   itrans  irefer
   11634.9  531640  94214.5  38364
   11644.9  528933  94097.5  38549
   11654.9  526404  93994.5  38738
   11665  523479  93829.5  38902
   11675.1  520255  93598.5  39031
   11684.9  517860  93510.5  39215
   11695  514902  93301.5  39365
   11705.1  512499  93206.5  39552
   11714.9  509974  93077.5  39728
   11725.1  507633  92989.5  39916
   11735  504661  92775.5  40055
   11744.9  502459  92705.5  40254
   11755.1  499797  92529.5  40415
   11765  497326  92387.5  40573
   11775  494579  92181.5  40726
   11784.9  492117  92012.5  40860
   11794.9  489568  91838.5  41018
   11804.9  487362  91696.5  41187
   11814.9  484705  91415.5  41268
   11824.9  481952  91083.5  41323
   11835  479460  90657.5  41324
   11845.1  476923  89955.5  41117
   11845.4  477567  90056.5  41163
   11846  476810  89894.5  41091
   11846.6  476389  89789.5  41038
   11846.9  476568  89791.5  41040
   11847.5  476435  89709.5  41001
   11848.1  475550  89529.5  40921
   11848.4  475504  89492.5  40904
   11849  475355  89403.5  40854
   11849.6  475467  89383.5  40842
   11849.9  474638  89208.5  40770
   11850.6  474312  89096.5  40708
   11850.9  474717  89144.5  40732
   11851.5  474555  89051.5  40675
   11852.1  474412  88925.5  40608
   11852.4  474622  88960.5  40620
   11853  474690  88863.5  40561
   11853.6  475197  88872.5  40552
   11853.9  474371  88661.5  40450
   11854.5  474547  88596.5  40392
   11855.1  474892  88548.5  40336
   11855.4  474514  88426.5  40271
   11856.1  473991  88167.5  40120
   11856.4  474124  88137.5  40090
   11857  474348  88012.5  39996
   11857.6  474148  87780.5  39825
   11857.9  473846  87658.5  39757
   11858.5  474366  87515.5  39613
   11859.1  474111  87258.5  39398
   11859.4  473448  87010.5  39254
   11860  473364  86700.5  38992
   11860.6  473360  86393.5  38701
   11861  473396  86243.5  38564
   11861.6  473011  85779.5  38141
   11861.9  472854  85531.5  37903
   11862.5  473249  85102.5  37349
   11863.1  472810  84453.5  36587
   11863.4  472020  84058.5  36165
   11864  471800  83282.5  34991
   11864.6  471721  82395.5  33451
   11864.9  471424  81863.5  32547
   11865.5  470936  80603.5  30326
   11865.9  471142  80122.5  29434
   11866.5  471823  78640.5  26891
   11867.1  471565  76604.5  24357
   11867.4  471466  75474.5  23236
   11868  472092  72633.5  21006
   11868.6  471739  69003.5  19109
   11868.9  471646  67347.5  18423
   11869.5  471066  61958.5  16588
   11870.1  470932  55601.5  14768
   11870.5  470961  52315.5  13884
   11871.1  470346  44325.5  11792
   11871.4  470036  41213.5  10991
   11872  469747  32623.5  8777
   11872.6  469506  24929.5  6779
   11872.9  469416  21784.5  5956
   11873.5  468981  16055.5  4450
   11874.1  469654  12519.5  3532
   11874.4  469439  11646.5  3307
   11875.1  469027  10761.5  3121
   11875.4  469184  10897.5  3189
   11876  469769  12094.5  3612
   11876.6  469471  14012.5  4249
   11876.9  469141  14878.5  4535
   11877.5  468981  17375.5  5361
   11878.1  469361  19962.5  6211
   11878.4  468864  21113.5  6593
   11879  468455  23514.5  7389
   11879.4  468325  24386.5  7680
   11880  468896  26524.5  8394.99
   11880.6  468693  28158.5  8949.01
   11880.9  467997  28823.5  9176.99
   11881.5  468130  29946.5  9552
   11882.1  468262  30740.5  9823.99
   11882.4  467845  30939.5  9889
   11883  467303  31281.5  9996.99
   11883.7  467207  31484.5  10060
   11884  467230  31545.5  10076
   11884.6  466342  31574.5  10086
   11884.9  466309  31609.5  10100
   11885.5  466060  31649.5  10118
   11886.1  466011  31719.5  10153
   11886.4  465648  31735.5  10161
   11887  466023  31861.5  10211
   11887.6  465979  31981.5  10252
   11888  466224  32059.5  10278
   11888.6  466017  32235.5  10334
   11888.9  466460  32364.5  10374
   11889.5  466696  32650.5  10460
   11890.1  466327  32940.5  10553
   11890.4  465713  33061.5  10587
   11891  465848  33470.5  10708
   11891.6  466113  33895.5  10841
   11892  465844  34073.5  10900
   11892.6  465567  34468.5  11030
   11892.9  465591  34631.5  11089
   11893.5  465446  35015.5  11232
   11894.1  465363  35369.5  11377
   11894.4  464893  35497.5  11431
   11895  464681  35823.5  11577
   11895.6  464833  36135.3  11725.8
   11896.3  464573  36378.5  11840
   11896.9  464620  36614.3  11946.8
   11897.5  464710  36833.6  12029.2
   11898.4  465009  37178.3  12143
   11899  464717  37424.7  12215.4
   11899.7  464667  37734.4  12293.2
   11900.6  465083  38391.7  12486.6
   11901.2  465743  38914.6  12640.5
   11902.1  465523  39623.9  12866
   11903  465479  40374.7  13120.9
   11903.7  465712  40878.1  13289.4
   11904.6  466488  41602.9  13537.4
   11905.5  466397  42262.3  13776.9
   11906.4  466835  42893.1  13995.9
   11907.4  467206  43508.5  14217.5
   11908.3  467966  44085.4  14415.6
   11909.2  468177  44558.7  14578.1
   11910.1  468365  44919.6  14698.3
   11911.1  469784  45278  14810.9
   11912.3  470619  45424  14834
   11913.2  471285  45356.4  14801.7
   11914.2  471520  45151.3  14717.9
   11915.4  472183  44739.8  14586.6
   11916.3  473699  44457.7  14507.8
   11917.6  473596  43808.1  14350.6
   11918.8  473880  43096.1  14178.8
   11919.7  474836  42608.5  14075.6
   11921  476867  42056.5  13953.9
   11922.2  477165  41464  13784.7
   11923.4  478447  41048  13676.1
   11924.7  479162  40680.5  13576.9
   11925.9  480642  40452.5  13509.3
   11927.1  481533  40189  13427.2
   11928.4  483002  39985  13357.7
   11929.6  483530  39675.5  13246.6
   11930.9  485024  39419.5  13143
   11932.4  486987  39079.1  12989
   11933.7  488028  38783.1  12859.5
   11934.9  489032  38517.7  12723.5
   11936.4  489915  38242.8  12603.1
   11938  492204  38197.4  12558.1
   11939.2  493728  38185.4  12553.7
   11940.8  494155  38086  12530.8
   11942.3  494005  37993.1  12526.4
   11943.6  495647  38081.7  12582.5
   11945.1  498586  38287.8  12675.2
   11946.7  501738  38519.4  12780.4
   11948.2  503380  38653.6  12848.1
   11949.8  504860  38812.2  12915.3
   11951.3  505929  38981.3  12993
   11952.9  508512  39307  13125.3
   11954.8  510275  39630.2  13271
   11956.3  512487  39969.8  13420.3
   11957.9  513902  40243  13537.1
   11959.7  515315  40558.7  13657.5
   11961.3  517450  40874.8  13763.3
   11963.2  520136  41235.5  13878.7
   11964.7  522196  41517.8  13971.6
   11966.6  523657  41757.4  14061.9
   11968.5  525518  42037.7  14199.9
   11970  527606  42364.4  14370.3
   11971.9  529884  42808.7  14614.3
   11973.8  532453  43330.4  14881.8
   11975.6  533828  43817.6  15115.8
   11977.5  536954  44465.4  15371.3
   11979.4  538863  45013.7  15589.3
   11981.3  540439  45494.4  15764.9
   11983.1  541978  45916.7  15918
   11985  543648  46299.5  16043.6
   11987.2  544867  46609.8  16116.7
   11989.1  549516  47114.6  16253.3
   11991.3  553578  47607.9  16358.5
   11993.2  555366  47872.8  16399.2
   11995.3  556959  48146.1  16431.4
   11997.2  559262  48419.9  16470.1
   11999.4  561987  48730.2  16562.3
   12001.3  564590  49009.1  16676.1
   12003.5  568110  49324.4  16809.4
   12005.7  570547  49533.3  16922.2
   12007.9  572446  49684.7  17014.5
   12010.1  574588  49852.5  17110.3
   12012.3  575924  49916  17188.6
   12014.5  580083  50192.9  17334.5
   12016.7  584033  50471.3  17483.9
   12018.9  586256  50595.2  17570.8
   12021.1  589019  50787.6  17683.2
   12023.6  592242  50980.5  17829.2
   12025.8  594878  51078  17916.7
   12028  598425  51210.9  18009.6
   12030.5  601049  51224.4  18061.2
   12032.7  604860  51350.3  18145.2
   12035.3  608317  51452.8  18225.7
   12037.8  611130  51547.7  18307.8
   12040  613710  51670.3  18389.4
   12042.5  617180  51975.2  18532.5
   12045  619237  52248.7  18666.1
   12047.6  622878  52721.7  18883.3
   12050.1  625293  53098.2  19053.9
   12052.6  627880  53471.2  19187.1
   12055.2  629810  53749.8  19268.8
   12057.7  632488  54049.8  19356
   12060.2  638880  54681.4  19578.8
   12062.8  640548  54947.4  19696
   12065.3  645342  55430  19910.8
   12068.1  648697  55808  20083.1
   12070.7  651575  56155.6  20224.9
   12073.2  655457  56621.7  20373.3
   12076.1  658004  56981.3  20486.1
   12078.6  663129  57551.4  20664.5
   12081.5  665414  57869  20753.4
   12084.3  668792  58274.1  20883.8
   12086.9  670984  58555.8  20989.7
   12089.7  677056  59208.9  21249.2
   12092.6  678781  59493.5  21407.2
   12095.5  683644  60064.7  21689.7
   12098.3  686464  60464.3  21918.7
   12101.2  689651  60885.4  22155.2
   12104.1  693342  61370.2  22391.3
   12107  696660  61827.3  22630.8
   12109.8  700210  62291  22875.9
   12112.7  702969  62686.2  23105.5
   12115.9  708079  63277.9  23424.6
   12118.8  710204  63583.1  23616.3
   12121.6  715520  64175.8  23927.5
   12124.9  719136  64658  24194.1
   12127.7  722739  65134.8  24427.4
   12130.9  726890  65706  24696.1
   12133.8  728923  66022.8  24863.3
   12137  732475  66466  25038.1
   12140.2  738412  67129.8  25299.4
   12143.4  742253  67599.1  25458.2
   12146.3  744365  67866.8  25557.5
   12149.6  749567  68370.1  25756.4
   12152.8  752459  68650.9  25870.7
   12156  757034  69030.2  26018.6
   12159.2  761269  69391  26186
   12162.4  765113  69765.4  26349.9
   12165.6  768363  70093.2  26522.4
   12169.2  773032  70541.5  26737.3
   12172.4  776930  70986.3  26965.8
   12175.6  781452  71543.7  27225.8
   12178.9  785798  72134.5  27501.3
   12182.4  789083  72627.9  27734.4
   12185.7  794476  73264.7  28013.9
   12189.2  796879  73574.1  28186
   12192.5  800449  73957  28396.6
   12196  805173  74482.4  28670.7
   12199.6  808016  74823.3  28870.3
   12202.8  813958  75520.7  29202.5
   12206.4  816807  76017.6  29466.1
   12210  820472  76655  29790.3
   12213.5  825631  77355  30160
   12217.1  828988  77812.4  30441.3
   12220.7  833193  78278.4  30733
   12224.3  838401  78781.8  31030.3
   12227.8  841826  79192.8  31282.1
   12231.4  846738  79839.2  31614.4
   12235  850541  80393.3  31920.2
   12238.9  852987  80814.7  32161.6
   12242.5  858644  81518.7  32512.4
   12246.1  862997  82135.3  32810.8
   12250  867914  82798.3  33093.7
   12253.6  871556  83288.8  33305.2
   12257.5  875534  83780.8  33525.1
   12261.2  879678  84310.3  33776.6
   12265.1  882995  84846.3  34031.5
   12269  885985  85326.9  34269.1
   12272.6  892340  86112  34639.1
   12276.6  897273  86774.5  34972.6
   12280.5  900141  87302.6  35240.7
   12284.4  902402  87787.2  35505.2
   12288.4  908912  88672.2  35945.3
   12292.3  912976  89281.8  36291
   12296.3  916185  89814  36608.1
   12300.2  921646  90555.6  36996.8
   12304.2  926282  91197.7  37359
   12308.2  928291  91537.3  37604.6
   12312.1  932384  92073.4  37908.9
   12316.1  938600  92771.1  38292.6
   12320.4  942452  93298.3  38621.9
   12324.3  947443  93956.9  38989.6
   12328.7  953055  94701  39407.9
   12332.6  956489  95230.7  39732.7
   12336.6  960247  95793.9  40076.1
   12340.9  965218  96491.6  40489.9
   12345.2  969117  97067.8  40832.3
   12349.2  972787  97599.5  41138.2
   12353.5  978154  98320.7  41536.6
   12357.9  981879  98912.4  41878.5
   12362.2  985904  99543.7  42235
   12366.2  990029  100126  42574.9
   12370.5  994749  100808  42970.4
   12374.9  999468  101525  43363.5
   12379.2  1.00192e+06  102024  43666
   12383.5  1.00781e+06  102824  44090
   12387.9  1.01039e+06  103240  44347.6
   12392.6  1.01448e+06  103847  44698.7
   12396.9  1.02006e+06  104631  45110.3
   12401.3  1.0244e+06  105253  45472.4
   12405.6  1.02821e+06  105856  45814
   12410.3  1.03247e+06  106545  46212.2
   12414.7  1.03548e+06  107116  46569.9
   12419  1.04015e+06  107910  47011.1
   12423.8  1.04483e+06  108735  47507.8
   12428.1  1.04971e+06  109517  47968.1
   12432.8  1.05219e+06  110030  48323.8
   12437.6  1.05556e+06  110593  48694.1
   12441.9  1.0613e+06  111375  49167.9
   12446.7  1.06414e+06  111873  49532.2
   12451.4  1.06858e+06  112527  49970
   12456.1  1.07368e+06  113277  50418.4
   12460.5  1.07625e+06  113759  50770.3
   12465.3  1.07876e+06  114293  51160.7
   12470  1.08516e+06  115271  51724.6
   12474.7  1.08992e+06  116100  52234
   12479.5  1.09468e+06  116878  52725
   12484.2  1.09868e+06  117613  53183.4
   12489  1.10132e+06  118190  53567.4
   12494.1  1.10519e+06  118945  54047
   12498.9  1.10772e+06  119525  54428
   12503.6  1.11203e+06  120236  54860.6
   12508.4  1.11645e+06  120995  55352.6
   12513.5  1.11796e+06  121457  55691.2
   12518.3  1.12483e+06  122455  56279.3
   12523.4  1.12927e+06  123182  56753.9
   12528.2  1.13151e+06  123666  57103.1
   12533.4  1.13559e+06  124396  57585.8
   12538.1  1.14045e+06  125222  58088.9
   12543.3  1.14444e+06  125937  58557.7
   12548.1  1.14709e+06  126491  58945.9
   12553.2  1.15343e+06  127459  59542.6
   12558.4  1.15634e+06  128095  59993.9
   12563.6  1.16026e+06  128848  60505.7
   12568.7  1.1637e+06  129560  60986
   12573.5  1.1666e+06  130126  61399.8
   12578.7  1.1721e+06  131052  62018.1
   12583.9  1.17486e+06  131679  62465
   12589.1  1.17819e+06  132342  62961.4
   12594.2  1.1817e+06  133037  63474.3
   12599.4  1.18636e+06  133836  64023.7
   12605  1.18837e+06  134342  64461.7
   12610.2  1.19313e+06  135172  65027.1
   12615.4  1.19456e+06  135649  65445.1
   12620.6  1.20128e+06  136712  66131.6
   12625.8  1.2038e+06  137389  66653.6
   12631.3  1.20657e+06  138112  67185.1
   12636.6  1.21229e+06  139170  67884.2
   12642.1  1.21431e+06  139804  68376.8
   12647.4  1.21838e+06  140606  68930.9
   12652.9  1.22186e+06  141315  69457.5
   12658.2  1.22425e+06  141877  69903.6
   12663.8  1.22836e+06  142652  70481.3
   12669  1.23028e+06  143202  70908.5
   12674.6  1.23351e+06  143921  71446.2
   12680.2  1.23819e+06  144807  72084.3
   12685.8  1.24047e+06  145438  72598
   12691.1  1.2453e+06  146344  73225.3
   12696.7  1.24642e+06  146847  73666.1
   12702.3  1.24967e+06  147601  74254.4
   12708  1.25328e+06  148394  74844.2
   12713.6  1.25882e+06  149448  75579.6
   12719.3  1.26193e+06  150233  76192.4
   12724.9  1.26703e+06  151217  76902.8
   12730.6  1.26317e+06  151186  77096.6
   12736.2  1.26638e+06  151982  77722.1
   12741.9  1.26977e+06  152777  78337
   12747.9  1.27219e+06  153490  78949.4
   12753.6  1.27556e+06  154284  79567.4
   12759.2  1.27997e+06  155170  80260.8
   12764.9  1.28426e+06  156051  80920.9
   12771  1.2853e+06  156573  81443.4
   12776.7  1.28879e+06  157328  82075.4
   12782.4  1.29197e+06  158129  82708.9
   12788.4  1.29592e+06  158996  83419.1
   12794.1  1.29594e+06  159384  83856.6
   12800.2  1.30008e+06  160286  84562.8
   12806.3  1.30258e+06  160989  85149.4
   12812  1.30305e+06  161447  85638.6
   12818.1  1.30673e+06  162338  86339.3
   12824.2  1.3097e+06  163134  86990.5
   12829.9  1.31312e+06  163941  87659.2
   12836  1.31521e+06  164567  88247.4
   12842.1  1.31846e+06  165407  88947.1
   12848.2  1.32261e+06  166336  89705.5
   12854.4  1.3219e+06  166668  90120.2
   12860.5  1.32393e+06  167339  90742.5
   12866.3  1.32786e+06  168236  91471.3
   12872.4  1.33193e+06  169244  92281.7
   12878.6  1.33491e+06  170081  93003.6
   12885.1  1.3347e+06  170548  93528