File: data/As/as2o3_roomt_scan1.xdi
# XDI/1.0
# Column.1: energy eV
# Column.2: i0
# Column.3: itrans
# Column.4: irefer
# Beamline.name: SSRL 4-1
# Detector.I0: N2 15cm
# Detector.I1: N2 30cm
# Detector.I2: Ar 15cm
# Element.edge: K
# Element.symbol: As
# Mono.d_spacing: 3.13550
# Mono.name: Si(111)
# Mono.notes: unfocused, detuned 40%,counter clockwise at E=12000eV
# Sample.formula: As2O3
# Sample.name: As2O3 arsenious oxide
# Sample.prep: powder, mixed 1:60 with B(OH)3 by wt
# Sample.reference: GaAs powder
# Sample.temperature: room temperature
# Scan.start_time: 1997-01-19 14:12:16
# ///
#    Note: mono d_spacing is nominal!
#     exafs to K15, GaAs in IR
#     320  E XMU XMUR I0
#-------------
#   energy   i0   itrans  irefer
   11650  179062  281173  325987
   11660  177192  278918  324267
   11670  178040  280974  327517
   11680  177121  280201  327524
   11690  176917  280586  328855
   11700  176478  280615  329727
   11710  175015  278964  328694
   11720  175232  280013  330810
   11730  174715  279882  331531
   11740  174755  280635  333268
   11750  174308  280622  334136
   11760  174268  281225  335748
   11770  173368  280415  335699
   11780  172148  279131  334996
   11790  172098  279693  336516
   11800  171784  279770  337488
   11810  171212  279410  337854
   11820  170442  278631  337676
   11830  169899  278125  337682
   11840  169217  277029  336769
   11850  168960  275741  334878
   11850.8  168767  275281  334186
   11851.5  167889  273618  332086
   11852.3  168602  274629  333152
   11853  169457  275801  334396
   11853.8  168118  273307  331187
   11854.5  168709  273969  331752
   11855.3  168321  273010  330304
   11856.1  167594  271362  327968
   11856.8  168081  271692  327962
   11857.6  167596  270384  325972
   11858.3  167718  269853  324737
   11859.1  168226  269832  323924
   11859.9  167494  267732  320546
   11860.6  167509  266501  317823
   11861.4  167440  264836  314168
   11862.1  167890  263841  311022
   11862.9  167833  261343  305040
   11863.6  167567  257390  295331
   11864.4  167877  253537  284050
   11865.2  167960  247354  267023
   11865.9  167363  236802  242436
   11866.7  167393  223930  216631
   11867.4  167780  207510  188947
   11868.2  167879  184729  156329
   11868.9  167247  160891  126590
   11869.7  168294  144548  108526
   11870.5  168078  129637  95151
   11871.2  167908  121216  89094.9
   11872  167064  119934  88784.9
   11872.7  167263  126090  94140.9
   11873.5  167743  137506  103864
   11874.2  167382  147281  112717
   11875  167159  155779  121053
   11875.8  166906  163168  128925
   11876.5  166781  168772  135281
   11877.3  167107  173314  140853
   11878  167456  176204  145160
   11878.8  166608  175383  146185
   11879.5  166097  173432  145728
   11880.3  166590  171610  145179
   11881.1  166485  169165  143849
   11881.8  166363  167580  142985
   11882.6  167033  167690  143418
   11883.3  166587  167970  143780
   11884.1  166046  168809  144469
   11884.8  166934  171371  146620
   11885.6  167160  173320  148302
   11886.4  165962  173480  148497
   11887.1  165579  174428  149390
   11887.9  166466  176854  151543
   11888.6  167113  179044  153431
   11889.4  166536  179885  154092
   11890.1  166337  181415  155299
   11890.9  166634  183452  156951
   11891.7  165859  184032  157391
   11892.4  166471  186207  159259
   11893.2  166840  188131  161059
   11893.9  166748  189124  162221
   11894.7  165479  188617  162192
   11895.5  166283  190121  164014
   11896.2  166277  190388  164754
   11897  165623  189812  164638
   11897.7  166182  190590  165606
   11898.5  166049  190629  165699
   11899.2  166574  191446  166332
   11900  165944  191005  165755
   11901.3  165590  191139  165526
   11902.6  166518  192880  166827
   11903.9  166048  193005  166951
   11905.2  166510  194177  168146
   11906.6  165301  193138  167483
   11908  166698  194939  169210
   11909.4  165960  193796  168275
   11910.8  165792  192759  167294
   11912.2  166314  192250  166661
   11913.6  166308  191017  165296
   11915.1  165519  189024  163391
   11916.6  166188  189137  163551
   11918.1  166874  189352  164282
   11919.6  166581  188572  164364
   11921.2  166748  188217  164777
   11922.7  166152  186656  164001
   11924.3  167558  187276  164844
   11925.9  167263  185941  163841
   11927.6  167835  185744  163726
   11929.2  167541  184854  162879
   11930.9  168633  185660  163337
   11932.5  168167  184777  162138
   11934.2  169026  185482  162177
   11936  169828  186251  162207
   11937.7  169606  185987  161391
   11939.4  170929  187333  162234
   11941.2  170976  187162  162069
   11943  171611  187609  162708
   11944.8  171413  187333  162755
   11946.7  171936  188093  163679
   11948.5  172620  189348  165036
   11950.4  172056  189457  165392
   11952.3  172434  190663  166659
   11954.2  173243  192150  168234
   11956.1  173734  193209  169508
   11958.1  174509  194549  171110
   11960  174693  195283  172010
   11962  175792  197015  173532
   11964  175879  197568  173871
   11966  176348  198504  174559
   11968.1  176541  199132  175190
   11970.2  177847  201013  177355
   11972.2  178879  202563  179618
   11974.3  179294  203386  181420
   11976.5  180490  205091  183851
   11978.6  180660  205744  184989
   11980.8  182150  207960  187219
   11982.9  183025  209553  188725
   11985.1  183647  210778  189789
   11987.3  183605  211143  189844
   11989.6  184141  212043  190137
   11991.8  184918  213166  190438
   11994.1  185567  214079  190446
   11996.4  186054  214737  190173
   11998.7  188101  217038  191444
   12001  187631  216320  190401
   12003.4  189702  218433  192243
   12005.8  190032  218477  192554
   12008.1  191327  219611  193957
   12010.6  192091  220100  194772
   12013  192860  220675  195725
   12015.4  194472  222321  197695
   12017.9  194501  222170  198074
   12020.4  196205  223945  200141
   12022.9  196083  223691  200441
   12025.4  197524  225277  202452
   12027.9  199534  227572  205050
   12030.5  199113  227076  205071
   12033.1  200472  228634  206907
   12035.7  202512  231125  209537
   12038.3  203778  232829  211463
   12040.9  204408  233863  212810
   12043.6  205595  235659  214745
   12046.3  206721  237347  216615
   12049  208521  239902  219295
   12051.7  209380  241346  220905
   12054.4  209226  241651  221145
   12057.2  210832  243930  222872
   12059.9  212832  246590  224903
   12062.7  213584  247739  225824
   12065.5  214721  249282  227417
   12068.4  216364  251385  229646
   12071.2  217072  252345  230696
   12074.1  218493  254252  232219
   12077  219859  256123  233500
   12079.9  220552  257308  234093
   12082.8  221833  259183  235397
   12085.7  223846  261894  237550
   12088.7  224986  263574  238941
   12091.7  226458  265596  240899
   12094.7  226222  265551  241421
   12097.7  228666  268673  244969
   12100.8  230166  270730  247566
   12103.8  231451  272557  249999
   12106.9  232370  273998  251929
   12110  234259  276649  254952
   12113.1  235119  278082  256985
   12116.2  236446  280066  259624
   12119.4  238217  282470  262703
   12122.6  239990  284859  265694
   12125.7  241095  286407  267877
   12129  242479  288205  270210
   12132.2  243087  289079  271397
   12135.4  245148  291609  273934
   12138.7  247156  293993  276129
   12142  247777  294678  276453
   12145.3  249610  296776  278140
   12148.6  251610  299049  280042
   12152  253771  301590  282257
   12155.4  255519  303670  284114
   12158.7  256744  305257  285578
   12162.1  256838  305706  286101
   12165.6  258489  308041  288508
   12169  262168  312929  293367
   12172.5  262821  314281  294981
   12175.9  264359  316731  297713
   12179.4  266505  319962  301048
   12183  266539  320674  301880
   12186.5  269743  325131  306235
   12190  272348  328860  310041
   12193.6  274132  331539  313104
   12197.2  275376  333473  315486
   12200.8  277366  336250  318587
   12204.5  277885  337202  319959
   12208.1  281031  341316  324373
   12211.8  282984  343913  327534
   12215.5  283176  344342  328736
   12219.2  284971  346732  331908
   12222.9  287183  349692  335602
   12226.7  288764  351862  338494
   12230.4  290802  354671  341836
   12234.2  292358  356958  344611
   12238  295236  360970  349008
   12241.9  296853  363478  351911
   12245.7  297190  364491  353223
   12249.6  299138  367554  356201
   12253.4  301817  371507  359860
   12257.3  303001  373586  361746
   12261.3  303798  375231  363344
   12265.2  306697  379454  367541
   12269.2  308524  382223  370534
   12273.1  311364  386186  374629
   12277.1  312848  388437  377040
   12281.1  315691  392342  381093
   12285.2  316998  394245  383380
   12289.2  317593  395220  384902
   12293.3  319890  398279  388579
   12297.4  323041  402421  393276
   12301.5  324596  404546  396023
   12305.6  326094  406672  398763
   12309.8  328921  410486  403126
   12314  330149  412397  405673
   12318.2  333643  417141  411046
   12322.4  333044  416900  411534
   12326.6  336345  421634  416880
   12330.8  338324  424714  420712
   12335.1  340426  428081  424832
   12339.4  342828  431782  429303
   12343.7  344049  434104  432315
   12348  346067  437407  436132
   12352.4  348531  441225  440544
   12356.7  350692  444322  444808
   12361.1  352828  447875  448365
   12365.5  354249  450600  451094
   12369.9  356050  453669  454167
   12374.3  358283  456833  458738
   12378.8  360831  460563  462954
   12383.3  363921  464983  467765
   12387.8  365505  467419  470628
   12392.3  365219  467536  471134
   12396.8  368830  472652  476740
   12401.4  369750  474340  478897
   12405.9  373903  480198  485351
   12410.5  373037  479695  485391
   12415.1  378216  487026  493403
   12419.8  380071  490154  497254
   12424.4  382667  494244  502195
   12429.1  384159  496976  505754
   12433.8  385271  499253  508871
   12438.5  389422  505405  516042
   12443.2  390726  507929  519521
   12447.9  391246  509366  522032
   12452.7  393296  512776  526431
   12457.5  396919  518173  532867
   12462.3  399111  521674  537353
   12467.1  401675  525674  542317
   12471.9  404459  529884  547582
   12476.8  405355  531573  550224
   12481.7  408885  536726  556319
   12486.6  409501  538057  558404
   12491.5  411805  541667  562790
   12496.4  415296  546844  568868
   12501.4  417529  550348  573230
   12506.4  420044  554312  578044
   12511.3  419575  554406  578856
   12516.4  421059  557137  582474
   12521.4  423965  561826  588187
   12526.4  427538  567432  594813
   12531.5  430074  571681  600067
   12536.6  431218  574140  603374
   12541.7  433529  578135  608341
   12546.8  435268  581374  612588
   12552  438123  586148  618440
   12557.1  441638  591741  625250
   12562.3  444267  596126  630817
   12567.5  444134  596787  632425
   12572.8  447172  601701  638562
   12578  449688  605889  643997
   12583.3  451994  609744  649167
   12588.5  453786  612921  653638
   12593.8  455716  616327  658357
   12599.2  460001  622898  666513
   12604.5  461810  626133  671125
   12609.9  462971  628663  674958
   12615.2  463692  630495  678114
   12620.6  468083  637312  686512
   12626  471490  642920  693637
   12631.5  471629  644071  695918
   12636.9  474368  648787  702063
   12642.4  475320  651072  705547
   12647.9  480107  658672  714776
   12653.4  482764  663319  720857
   12658.9  483862  665864  724580
   12664.5  484768  668102  727998
   12670  486346  671217  732430
   12675.6  489931  677110  739869
   12681.2  490595  678972  742935
   12686.8  494418  685137  750807
   12692.5  497494  690316  757598
   12698.1  497573  691317  759847
   12703.8  501390  697488  767793
   12709.5  502543  700012  771750
   12715.2  505292  704775  778155