File: data/As/as2o3_roomt_scan2.xdi
# XDI/1.0
# Column.1: energy eV
# Column.2: i0
# Column.3: itrans
# Column.4: irefer
# Beamline.name: SSRL 4-1
# Detector.I0: N2 15cm
# Detector.I1: N2 30cm
# Detector.I2: Ar 15cm
# Element.edge: K
# Element.symbol: As
# Mono.d_spacing: 3.13550
# Mono.name: Si(111)
# Mono.notes: unfocused, detuned 40%,counter clockwise at E=12000eV
# Sample.formula: As2O3
# Sample.name: As2O3 arsenious oxide
# Sample.prep: powder, mixed 1:60 with B(OH)3 by wt
# Sample.reference: GaAs powder
# Sample.temperature: room temperature
# Scan.start_time: 1997-01-19 14:12:16
# ///
#    Note: mono d_spacing is nominal!
#     exafs to K15, GaAs in IR
#     320  E XMU XMUR I0
#-------------
#   energy   i0   itrans  irefer
   11650  176879  277850  322182
   11660  177239  279116  324512
   11670  175898  277701  323742
   11680  176644  279588  326832
   11690  175214  277999  325864
   11700  174627  277759  326438
   11710  175255  279432  329316
   11720  174492  278935  329575
   11730  173769  278476  329895
   11740  173020  277942  330152
   11750  172410  277640  330659
   11760  172406  278297  332314
   11770  171875  278078  332943
   11780  171904  278800  334651
   11790  170792  277613  334104
   11800  170451  277675  335027
   11810  170728  278738  337048
   11820  169851  277756  336646
   11830  169460  277464  336946
   11840  167862  274881  334194
   11850  168064  274337  333175
   11850.8  167667  273521  332058
   11851.5  168021  273907  332412
   11852.3  168000  273663  331990
   11853  167039  271858  329636
   11853.8  168021  273155  330979
   11854.5  168047  272901  330423
   11855.3  168137  272671  329878
   11856.1  167862  271757  328408
   11856.8  167525  270749  326780
   11857.6  166590  268677  323847
   11858.3  166799  268282  322748
   11859.1  167235  268084  321699
   11859.9  166360  265751  317994
   11860.6  167274  265920  316883
   11861.4  167175  264125  312990
   11862.1  167429  262734  309231
   11862.9  167574  260453  303310
   11863.6  167424  256499  293256
   11864.4  166435  250384  278868
   11865.2  168126  246367  263898
   11865.9  167524  235090  238388
   11866.7  166689  220189  210680
   11867.4  166758  202716  182450
   11868.2  167431  180633  151100
   11868.9  166407  156921  122302
   11869.7  167057  140829  105106
   11870.5  166557  126699  92929.9
   11871.2  166157  119422  87884.9
   11872  166500  120082  89010.9
   11872.7  166752  127026  94998.9
   11873.5  166528  138101  104509
   11874.2  166677  147942  113474
   11875  166776  156460  121855
   11875.8  166569  163690  129612
   11876.5  166811  169486  136135
   11877.3  166206  172875  140769
   11878  165794  174652  144143
   11878.8  165885  174586  145655
   11879.5  165998  173166  145651
   11880.3  166387  171220  144960
   11881.1  166599  169137  143930
   11881.8  166145  167288  142816
   11882.6  165988  166703  142627
   11883.3  166163  167714  143602
   11884.1  166290  169287  144900
   11884.8  166099  170752  146101
   11885.6  166606  172987  148018
   11886.4  165221  172899  148049
   11887.1  165878  174936  149871
   11887.9  166891  177502  152146
   11888.6  166012  178094  152652
   11889.4  165819  179355  153669
   11890.1  166231  181515  155410
   11890.9  165266  182187  155880
   11891.7  165516  183848  157261
   11892.4  165459  185294  158517
   11893.2  165471  186781  159959
   11893.9  165225  187568  160940
   11894.7  165327  188572  162225
   11895.5  165274  189068  163202
   11896.2  165455  189525  164084
   11897  164581  188663  163724
   11897.7  165043  189365  164573
   11898.5  165077  189580  164826
   11899.2  165624  190434  165471
   11900  165650  190747  165547
   11901.3  165403  191017  165429
   11902.6  165352  191618  165764
   11903.9  165103  191989  166123
   11905.2  166290  193990  168039
   11906.6  165458  193407  167739
   11908  165632  193731  168205
   11909.4  165483  193247  167835
   11910.8  165204  192088  166743
   11912.2  166001  191921  166378
   11913.6  165747  190370  164764
   11915.1  164860  188307  162794
   11916.6  166643  189659  164076
   11918.1  166224  188657  163727
   11919.6  166165  188128  164037
   11921.2  165725  187057  163836
   11922.7  165919  186427  163836
   11924.3  167328  187041  164662
   11925.9  167370  186101  164004
   11927.6  166705  184497  162676
   11929.2  167902  185302  163296
   11930.9  168193  185212  162964
   11932.5  168424  185104  162441
   11934.2  169225  185721  162416
   11936  168628  184998  161112
   11937.7  169432  185847  161275
   11939.4  169638  185938  161070
   11941.2  169660  185765  160909
   11943  170476  186405  161718
   11944.8  170501  186396  162001
   11946.7  170425  186510  162352
   11948.5  170942  187593  163556
   11950.4  172873  190447  166324
   11952.3  172849  191175  167174
   11954.2  172246  191120  167405
   11956.1  173387  192873  169282
   11958.1  174530  194655  171265
   11960  175010  195702  172435
   11962  175275  196512  173124
   11964  175160  196845  173256
   11966  175343  197448  173651
   11968.1  175657  198204  174437
   11970.2  177417  200611  177083
   11972.2  177545  201114  178442
   11974.3  178901  203020  181192
   11976.5  179216  203719  182698
   11978.6  179598  204626  184040
   11980.8  180496  206179  185649
   11982.9  181635  208025  187420
   11985.1  181406  208297  187588
   11987.3  182902  210440  189217
   11989.6  183453  211361  189507
   11991.8  183455  211549  188996
   11994.1  184123  212478  189017
   11996.4  184960  213555  189117
   11998.7  186501  215260  189890
   12001  187908  216699  190774
   12003.4  188292  216874  190919
   12005.8  189637  218079  192261
   12008.1  190344  218505  193050
   12010.6  191476  219473  194265
   12013  192960  220850  195949
   12015.4  193149  220865  196484
   12017.9  193251  220799  196923
   12020.4  195783  223565  199847
   12022.9  197355  225237  201886
   12025.4  197555  225396  202624
   12027.9  198366  226305  203984
   12030.5  199056  227060  205135
   12033.1  200176  228354  206737
   12035.7  201214  229703  208327
   12038.3  202889  231898  210677
   12040.9  204112  233604  212624
   12043.6  203838  233715  213048
   12046.3  205743  236328  215728
   12049  206370  237511  217186
   12051.7  208277  240197  219883
   12054.4  209099  241596  221123
   12057.2  210856  244037  223004
   12059.9  210943  244484  223026
   12062.7  213078  247237  225418
   12065.5  212779  247101  225491
   12068.4  214598  249402  227898
   12071.2  215882  251037  229554
   12074.1  217359  253001  231131
   12077  218465  254600  232141
   12079.9  219274  255915  232866
   12082.8  221814  259232  235506
   12085.7  222607  260536  236375
   12088.7  223343  261737  237336
   12091.7  224935  263893  239440
   12094.7  226361  265842  241746
   12097.7  227438  267331  243829
   12100.8  228995  269427  246487
   12103.8  230590  271631  249241
   12106.9  232311  274056  252045
   12110  232479  274623  253189
   12113.1  233631  276425  255547
   12116.2  236666  280413  260062
   12119.4  237192  281363  261764
   12122.6  237460  281936  263075
   12125.7  240296  285561  267192
   12129  242847  288798  270800
   12132.2  244973  291423  273690
   12135.4  245884  292607  274915
   12138.7  246474  293298  275506
   12142  247128  294008  275891
   12145.3  249315  296521  277956
   12148.6  250965  298369  279479
   12152  251939  299477  280356
   12155.4  252348  300007  280747
   12158.7  255486  303894  284339
   12162.1  256501  305412  285894
   12165.6  258342  308001  288539
   12169  260124  310595  291257
   12172.5  263240  314896  295643
   12175.9  264891  317475  298491
   12179.4  265549  318901  300132
   12183  267290  321698  302914
   12186.5  269027  324396  305614
   12190  270508  326754  308153
   12193.6  272104  329178  310962
   12197.2  273263  331011  313220
   12200.8  275548  334148  316681
   12204.5  277178  336466  319335
   12208.1  277445  337050  320415
   12211.8  280439  340921  324779
   12215.5  281374  342268  326836
   12219.2  284571  346381  331655
   12222.9  285860  348179  334260
   12226.7  288434  351560  338312
   12230.4  288890  352490  339819
   12234.2  292268  357016  344727
   12238  291610  356665  344950
   12241.9  294165  360323  348946
   12245.7  297135  364573  353367
   12249.6  298915  367405  356135
   12253.4  299168  368410  356921
   12257.3  301980  372507  360760
   12261.3  303990  375645  363797
   12265.2  304357  376675  364970
   12269.2  308262  382042  370454
   12273.1  309796  384427  372990
   12277.1  310795  386056  374831
   12281.1  314708  391261  380160
   12285.2  313711  390257  379654
   12289.2  316243  393676  383519
   12293.3  320009  398595  388981
   12297.4  321935  401201  392190
   12301.5  323199  402942  394583
   12305.6  324624  404937  397217
   12309.8  327478  408845  401642
   12314  329614  411872  405253
   12318.2  331330  414419  408476
   12322.4  331604  415261  410003
   12326.6  334235  419117  414533
   12330.8  336447  422521  418657
   12335.1  337894  425052  421923
   12339.4  340386  428913  426537
   12343.7  344078  434312  432633
   12348  344373  435408  434286
   12352.4  348580  441432  440921
   12356.7  348263  441431  441917
   12361.1  351591  446587  447076
   12365.5  353485  449758  450252
   12369.9  354780  452244  453066
   12374.3  357476  455957  458015
   12378.8  358753  458104  460600
   12383.3  361447  462036  464907
   12387.8  362747  464136  467390
   12392.3  365600  468224  471956
   12396.8  367248  470810  475001
   12401.4  369678  474458  479146
   12405.9  371849  477793  483024
   12410.5  373827  480936  486759
   12415.1  376235  484725  491206
   12419.8  378829  488757  495999
   12424.4  381074  492397  500446
   12429.1  382710  495334  504205
   12433.8  383942  497698  507439
   12438.5  387850  503581  514315
   12443.2  389499  506513  518244
   12447.9  389640  507488  520269
   12452.7  394535  514612  528440
   12457.5  395227  516198  530972
   12462.3  397830  520245  535974
   12467.1  398966  522320  539055
   12471.9  402089  526976  544750
   12476.8  404473  530652  549380
   12481.7  405630  532666  552255
   12486.6  409359  538127  558607
   12491.5  411255  541145  562414
   12496.4  413906  545187  567321
   12501.4  413086  544687  567483
   12506.4  416019  549254  572883
   12511.3  419674  554798  579399
   12516.4  421031  557325  582820
   12521.4  423013  560806  587264
   12526.4  426277  565963  593465
   12531.5  428735  570163  598578
   12536.6  430706  573714  603071
   12541.7  433415  578220  608604
   12546.8  433802  579669  610965
   12552  436904  584726  617117
   12557.1  439956  589756  623322
   12562.3  440472  591294  625838
   12567.5  443450  596147  631909
   12572.8  445895  600258  637200
   12578  446171  601374  639398
   12583.3  450186  607609  647018
   12588.5  453839  613292  654171
   12593.8  454002  614269  656345
   12599.2  459032  621859  665586
   12604.5  459268  622962  667911
   12609.9  461874  627335  673779
   12615.2  463286  630117  677919
   12620.6  466154  634950  684136
   12626  466757  636656  687078
   12631.5  470048  642069  693995
   12636.9  472812  646857  700146
   12642.4  474234  649805  704351
   12647.9  476760  654286  710191
   12653.4  478181  657248  714424
   12658.9  480279  661098  719607
   12664.5  482553  665234  725085
   12670  485158  669777  731049
   12675.6  487304  673672  736351
   12681.2  489549  677730  741870
   12686.8  493550  684151  749959
   12692.5  495177  687347  754521
   12698.1  496455  689944  758563
   12703.8  499814  695579  765877
   12709.5  502236  699842  771733
   12715.2  501365  699522  772568