File: data/As/as2o5_roomt_scan2.xdi
# XDI/1.0
# Column.1: energy eV
# Column.2: i0
# Column.3: itrans
# Column.4: irefer
# Beamline.name: SSRL 4-1
# Detector.I0: N2 15cm
# Detector.I1: N2 30cm
# Detector.I2: Ar 15cm
# Element.edge: K
# Element.symbol: As
# Mono.d_spacing: 3.13550
# Mono.name: Si(111)
# Mono.notes: unfocused, detuned 40%,counter clockwise at E=12000eV
# Sample.formula: As2O5
# Sample.name: As2O5 arsenic (V) oxide
# Sample.prep: powder, mixed 1:60 with B(OH)3 by wt
# Sample.reference: GaAs powder
# Sample.temperature: room temperature
# Scan.start_time: 1997-01-19 14:49:01
# ///
#    Note: mono d_spacing is nominal!
#     exafs to K15, GaAs in IR
#     320  E XMU XMUR I0
#-------------
#   energy   i0   itrans  irefer
   11650  173291  295721  343605
   11660  172501  295038  343744
   11670  172779  296177  346019
   11680  172595  296561  347388
   11690  171637  295579  347186
   11700  171422  295897  348482
   11710  171129  296093  349587
   11720  169493  293886  347961
   11730  169756  295019  350234
   11740  169341  294974  351111
   11750  168481  294144  351035
   11760  168158  294252  352098
   11770  167704  294054  352794
   11780  167702  294724  354476
   11790  166572  293347  353746
   11800  166121  293169  354414
   11810  166393  294204  356522
   11820  165366  292898  355726
   11830  164737  292161  355523
   11840  164213  291401  354997
   11850  164015  290639  353677
   11850.8  164232  290951  353926
   11851.5  163550  289621  352160
   11852.3  163781  289902  352377
   11853  163723  289728  351941
   11853.8  163414  288979  350837
   11854.5  163577  289086  350695
   11855.3  163313  288458  349598
   11856.1  163788  289057  349917
   11856.8  163003  287421  347505
   11857.6  162872  286936  346390
   11858.3  161963  285011  343339
   11859.1  163116  286611  344356
   11859.9  162606  285280  341730
   11860.6  162488  284543  339298
   11861.4  163468  285630  338508
   11862.1  163653  285278  335532
   11862.9  162687  282707  328440
   11863.6  162989  282050  320756
   11864.4  162302  279517  308247
   11865.2  163754  280295  295276
   11865.9  162852  276293  273343
   11866.7  163204  273972  253863
   11867.4  162914  269526  233249
   11868.2  164312  265757  213755
   11868.9  163470  255555  193242
   11869.7  163014  244026  178333
   11870.5  162548  227034  163261
   11871.2  162875  206301  147757
   11872  163009  185373  133062
   11872.7  163239  162531  117916
   11873.5  163184  141199  104914
   11874.2  163330  128637  98465.9
   11875  162109  122839  96998.9
   11875.8  162690  127566  103355
   11876.5  162305  137897  113384
   11877.3  162334  151623  125863
   11878  162088  165690  138670
   11878.8  162064  175477  147910
   11879.5  161695  179936  152470
   11880.3  162230  182570  155413
   11881.1  162523  183068  156368
   11881.8  162049  181999  155821
   11882.6  161944  181286  155488
   11883.3  162016  181135  155427
   11884.1  161738  180845  155163
   11884.8  162025  181143  155355
   11885.6  163063  182084  156148
   11886.4  162368  180952  155231
   11887.1  162745  180881  155211
   11887.9  161365  178828  153574
   11888.6  161330  178552  153399
   11889.4  161635  179192  153920
   11890.1  161832  180321  154829
   11890.9  162106  182263  156393
   11891.7  162258  184233  158082
   11892.4  162905  187250  160676
   11893.2  161649  188240  161804
   11893.9  161584  190116  163775
   11894.7  160987  191306  165265
   11895.5  160603  192555  166866
   11896.2  161851  195261  169671
   11897  161066  195263  170013
   11897.7  161285  196381  171199
   11898.5  161682  197586  172258
   11899.2  161901  198499  172946
   11900  161331  198627  172841
   11901.3  160964  199818  173523
   11902.6  160967  201857  175133
   11903.9  161759  205027  177965
   11905.2  161228  206754  179693
   11906.6  161536  209459  182247
   11908  162045  212658  185248
   11909.4  161410  213786  186256
   11910.8  161801  215695  187756
   11912.2  161520  215869  187629
   11913.6  161551  215682  187097
   11915.1  162265  215618  186835
   11916.6  162611  214634  186157
   11918.1  162015  211955  184466
   11919.6  162525  210768  184281
   11921.2  162507  208971  183531
   11922.7  162460  207232  182628
   11924.3  162775  206447  182252
   11925.9  162519  205306  181433
   11927.6  163153  205663  181809
   11929.2  163745  206246  182210
   11930.9  163529  205804  181523
   11932.5  164352  206482  181557
   11934.2  164140  205389  179906
   11936  164662  204853  178750
   11937.7  165239  204206  177594
   11939.4  165095  202780  176065
   11941.2  165422  202085  175503
   11943  166585  202545  176200
   11944.8  166376  201831  175907
   11946.7  166801  202361  176655
   11948.5  166611  202473  177023
   11950.4  167830  204306  178905
   11952.3  168448  205285  179984
   11954.2  168675  205568  180538
   11956.1  169207  206081  181381
   11958.1  169617  206317  182041
   11960  169768  206343  182264
   11962  170612  207351  183138
   11964  170696  207730  183297
   11966  170376  207821  183262
   11968.1  172011  210458  185739
   11970.2  172282  211461  187218
   11972.2  174119  214307  190725
   11974.3  174016  214765  192277
   11976.5  175265  216894  195069
   11978.6  175842  218322  196904
   11980.8  175816  219252  197961
   11982.9  177382  222334  200810
   11985.1  178140  224443  202624
   11987.3  178708  226097  203795
   11989.6  179846  228184  205068
   11991.8  180143  228951  204982
   11994.1  180687  229937  204974
   11996.4  181510  231225  205221
   11998.7  183268  233802  206732
   12001  183114  233989  206507
   12003.4  184425  236069  208396
   12005.8  185307  237628  210092
   12008.1  185121  237741  210629
   12010.6  186115  239226  212341
   12013  187615  241242  214626
   12015.4  188719  242673  216476
   12017.9  190299  244664  218791
   12020.4  191073  245586  220118
   12022.9  191870  246531  221550
   12025.4  191799  246276  221991
   12027.9  193008  247643  223787
   12030.5  193986  248607  225154
   12033.1  194516  248903  225915
   12035.7  196405  250999  228208
   12038.3  197385  251863  229412
   12040.9  198328  252715  230583
   12043.6  199433  253915  232043
   12046.3  200757  255525  233827
   12049  202294  257425  235988
   12051.7  203404  258901  237599
   12054.4  204359  260162  238688
   12057.2  206138  262549  240459
   12059.9  207369  264310  241670
   12062.7  207880  265189  242350
   12065.5  208861  266680  243967
   12068.4  210124  268552  246020
   12071.2  211030  269939  247430
   12074.1  211794  271225  248341
   12077  212825  272877  249392
   12079.9  215350  276474  252167
   12082.8  216518  278300  253402
   12085.7  216993  279239  253971
   12088.7  217728  280631  255094
   12091.7  219057  282840  257260
   12094.7  221895  286907  261588
   12097.7  221723  286992  262416
   12100.8  223325  289314  265330
   12103.8  224518  291145  267816
   12106.9  226061  293565  270664
   12110  227043  295315  272917
   12113.1  228293  297368  275599
   12116.2  230554  300824  279667
   12119.4  231198  302158  281792
   12122.6  232145  303850  284173
   12125.7  234224  306967  287886
   12129  236209  309955  291323
   12132.2  236761  310999  292720
   12135.4  239652  315230  296860
   12138.7  240378  316597  298058
   12142  241774  318819  299843
   12145.3  243931  321980  302490
   12148.6  245791  324674  304815
   12152  246257  325565  305477
   12155.4  247891  328022  307665
   12158.7  248991  329797  309283
   12162.1  250487  332102  311598
   12165.6  252145  334523  314124
   12169  254073  337301  317028
   12172.5  256138  340205  320137
   12175.9  256589  340974  321292
   12179.4  258155  343192  323714
   12183  259592  345267  325820
   12186.5  261292  347578  328170
   12190  263151  350073  330911
   12193.6  265948  353948  335121
   12197.2  267632  356388  338003
   12200.8  268666  358073  340145
   12204.5  270036  360251  342695
   12208.1  272350  363776  346636
   12211.8  273972  366442  349880
   12215.5  275293  368643  352831
   12219.2  277185  371611  356633
   12222.9  279525  375108  360990
   12226.7  280547  376904  363525
   12230.4  282867  380478  367659
   12234.2  283663  382055  369718
   12238  286668  386532  374633
   12241.9  287166  387585  376181
   12245.7  289210  390811  379609
   12249.6  290863  393457  382172
   12253.4  292556  396171  384634
   12257.3  294582  399343  387574
   12261.3  295177  400746  388929
   12265.2  298674  406118  394310
   12269.2  300770  409520  397929
   12273.1  302490  412355  400981
   12277.1  303736  414641  403434
   12281.1  304712  416550  405597
   12285.2  306366  419395  408845
   12289.2  308592  423003  412969
   12293.3  311647  427807  418388
   12297.4  313363  430730  421942
   12301.5  315652  434383  426239
   12305.6  317310  437135  429680
   12309.8  318488  439222  432402
   12314  321988  444599  438398
   12318.2  321914  444955  439501
   12322.4  324337  448818  444066
   12326.6  326929  452942  448912
   12330.8  327890  454806  451602
   12335.1  330130  458473  456080
   12339.4  332044  461608  460012
   12343.7  335212  466474  465639
   12348  337477  469715  470195
   12352.4  340005  473797  474281
   12356.7  342603  478197  478683
   12361.1  342642  478742  479232
   12365.5  347003  485274  487066
   12369.9  347087  485879  488386
   12374.3  348794  488742  491922
   12378.8  350075  491072  494730
   12383.3  353265  496041  500087
   12387.8  354795  498718  503199
   12392.3  356829  502127  507109
   12396.8  357805  504135  509606
   12401.4  360245  508190  514203
   12405.9  363591  513501  520142
   12410.5  365480  516820  524082
   12415.1  365541  517578  525497
   12419.8  368564  522464  531247
   12424.4  370370  525679  535295
   12429.1  374450  532134  542721
   12433.8  376337  535483  547027
   12438.5  375977  535696  548130
   12443.2  379609  541535  555144
   12447.9  380906  544153  558870
   12452.7  382658  547358  563169
   12457.5  385557  552215  569115
   12462.3  387910  556405  574316
   12467.1  389747  559785  578787
   12471.9  391647  563298  583384
   12476.8  392973  565948  587062
   12481.7  396256  571386  593529
   12486.6  397848  574470  597450
   12491.5  401237  580133  604040
   12496.4  402233  582309  607057
   12501.4  405239  587396  613093
   12506.4  406938  590536  617145
   12511.3  407651  592298  619735
   12516.4  410523  597285  625718
   12521.4  410760  598359  627742
   12526.4  415425  605956  636562
   12531.5  416573  608419  639936
   12536.6  418426  611881  644376
   12541.7  420929  616306  649876
   12546.8  423827  621288  655988
   12552  426784  626348  662227
   12557.1  430172  632133  669255
   12562.3  430428  633218  671401
   12567.5  431290  635202  674507
   12572.8  436008  642981  683744
   12578  438294  647088  689177
   12583.3  439149  649112  692475
   12588.5  440266  651567  696150
   12593.8  442618  655849  701930
   12599.2  445283  660614  708285
   12604.5  446134  662732  711781
   12609.9  450588  670233  721051
   12615.2  451914  673108  725384
   12620.6  453961  677025  730721
   12626  455097  679584  734648
   12631.5  457557  684207  740736
   12636.9  458476  686485  744295
   12642.4  462306  693272  752750
   12647.9  463429  695717  756423
   12653.4  465557  699862  761982
   12658.9  468839  705748  769441
   12664.5  470144  708692  773686
   12670  473161  714189  780762
   12675.6  474290  716902  784799
   12681.2  477233  722363  791922
   12686.8  480646  728586  799895
   12692.5  483266  733569  806578
   12698.1  482598  733588  807848
   12703.8  484909  738135  814044
   12709.5  489525  746162  824183
   12715.2  490275  748378  827845