File: data/As/as2o5_10K_scan3.xdi
# XDI/1.0
# Column.1: energy eV
# Column.2: i0
# Column.3: itrans
# Column.4: irefer
# Beamline.name: SSRL 2-3
# Beamline.notes: vert slits = 0.6mm
# Detector.I0: N2 15cm
# Detector.I1: Ar 30cm
# Detector.I2: Ar 15cm
# Element.edge: K
# Element.symbol: As
# Mono.d_spacing: 3.13550
# Mono.name: Si(111)
# Mono.notes: unfocused, detuned 75%, clockwise at E=12000eV
# Sample.formula: As2O5
# Sample.name: As2O5 arsenic (V) oxide
# Sample.prep: powder on tape (5 layers)
# Sample.reference: GaAs powder
# Sample.temperature: 10K
# Scan.start_time: 1997-04-19 18:40:39
# ///
#    Note: mono d_spacing is nominal!
#     exafs to K16, GaAs in IR
#     413  E XMU XMUR I0
#-------------
#   energy   i0   itrans  irefer
   11634.9  543932  96585.5  39606
   11644.9  540983  96414.5  39752
   11654.9  538292  96276.5  39949
   11665  535810  96210.5  40159
   11675.1  533119  96060.5  40335
   11684.9  529939  95849.5  40476
   11695  525778  95424.5  40528
   11705.1  523603  95385.5  40750
   11714.9  521146  95279.5  40934
   11725.1  519144  95263.5  41169
   11735  516458  95089.5  41332
   11744.9  513467  94884.5  41474
   11755.1  510517  94667.5  41624
   11765  508283  94572.5  41822
   11775  505636  94405.5  41964
   11784.9  503787  94355.5  42167
   11794.9  500617  94051.5  42290
   11804.9  497609  93760.5  42386
   11814.9  494605  93448.5  42475
   11824.9  492330  93185.5  42561
   11835  490137  92837.5  42589
   11845.1  487426  92141.5  42397
   11845.4  486968  92031.5  42356
   11846  486923  91999.5  42341
   11846.6  487064  91989.5  42341
   11846.9  487064  91975.5  42326
   11847.5  486724  91881.5  42291
   11848.1  486476  91799.5  42251
   11848.4  486652  91796.5  42246
   11849  486750  91785.5  42249
   11849.6  486001  91594.5  42155
   11849.9  485253  91449.5  42081
   11850.6  485053  91352.5  42041
   11850.9  485064  91320.5  42020
   11851.5  484669  91186.5  41959
   11852.1  485075  91171.5  41931
   11852.4  485085  91159.5  41940
   11853  485372  91149.5  41911
   11853.6  485656  91097.5  41873
   11853.9  485275  91004.5  41816
   11854.5  485864  90994.5  41791
   11855.1  486041  90928.5  41746
   11855.4  486145  90893.5  41716
   11856.1  485460  90648.5  41568
   11856.4  485326  90547.5  41520
   11857  485300  90384.5  41396
   11857.6  485817  90320.5  41304
   11857.9  484805  90059.5  41173
   11858.5  484990  89896.5  41040
   11859.1  485338  89735.5  40883
   11859.4  485001  89580.5  40779
   11860  484436  89218.5  40498
   11860.6  484803  88957.5  40263
   11861  484491  88794.5  40121
   11861.6  484357  88398.5  39762
   11861.9  484142  88169.5  39547
   11862.5  484151  87748.5  39067
   11863.1  483448  87118.5  38413
   11863.4  483611  86929.5  38138
   11864  482711  86148.5  37156
   11864.6  481715  85195.5  35787
   11864.9  481893  84823.5  35082
   11865.5  481690  83817.5  33196
   11865.9  481785  83390.5  32361
   11866.5  482098  82068.5  29849
   11867.1  482398  80472.5  27239
   11867.4  482511  79602.5  26043
   11868  482462  77253.5  23604
   11868.6  482442  74176.5  21366
   11868.9  481992  72792.5  20607
   11869.5  482280  68404.5  18707
   11870.1  482240  62804.5  16884
   11870.5  481489  59829.5  16019
   11871.1  481116  52461.5  14023
   11871.4  481240  49430.5  13230
   11872  480971  40683.5  10951
   11872.6  480366  32135.5  8725
   11872.9  479774  28376.5  7736
   11873.5  480420  21104.5  5815
   11874.1  480311  15808.5  4408
   11874.4  479806  14193.5  3977
   11875.1  479544  11715.5  3336
   11875.4  480085  11306.5  3247
   11876  480326  11592.5  3398
   11876.6  479889  13026.5  3896
   11876.9  479781  13822.5  4163
   11877.5  480298  16266.5  4980
   11878.1  480145  18878.5  5851
   11878.4  479701  20099.5  6260
   11879  479270  22740.5  7140
   11879.4  479830  23724.5  7464
   11880  479602  26177.5  8291
   11880.6  479157  28164.5  8963.99
   11880.9  478968  29004.5  9252.01
   11881.5  478961  30514.5  9769.99
   11882.1  479126  31626.5  10151
   11882.4  478382  31878.5  10240
   11883  478106  32475.5  10439
   11883.7  478197  32815.5  10546
   11884  478185  32903.5  10566
   11884.6  477886  33036.5  10610
   11884.9  477247  33026.5  10604
   11885.5  476456  33064.5  10617
   11886.1  476702  33143.5  10651
   11886.4  476905  33205.5  10679
   11887  476257  33262.5  10705
   11887.6  476880  33423.5  10765
   11888  476956  33481.5  10785
   11888.6  477266  33678.5  10852
   11888.9  476710  33736.5  10877
   11889.5  476753  33974.5  10951
   11890.1  476696  34281.5  11040
   11890.4  476609  34415.5  11081
   11891  476351  34795.5  11198
   11891.6  476203  35196.5  11321
   11892  476289  35412.5  11391
   11892.6  476262  35843.5  11532
   11892.9  475679  35966.5  11575
   11893.5  475792  36404.5  11727
   11894.1  475580  36779.5  11876
   11894.4  475234  36935.5  11944
   11895  475189  37273.5  12095
   11895.6  475023  37593.2  12242.8
   11896.3  475060  37890.5  12378
   11896.9  475172  38147.3  12502.8
   11897.5  474836  38330.6  12588.2
   11898.4  474720  38618.4  12702
   11899  475293  38895.7  12782.4
   11899.7  475732  39210.4  12872.2
   11900.6  475399  39764.8  13023.6
   11901.2  475177  40184.6  13148.5
   11902.1  475700  40962.9  13393
   11903  475989  41769.7  13663.9
   11903.7  476511  42313.1  13841.4
   11904.6  476242  42969.9  14072.4
   11905.5  476563  43682.2  14330.9
   11906.4  477556  44398.1  14581.9
   11907.4  477884  45053.5  14821.5
   11908.3  477576  45575.4  15011.6
   11909.2  478210  46137.8  15196.1
   11910.1  479278  46647.7  15374.3
   11911.1  480409  47051  15492.9
   11912.3  481255  47270  15549
   11913.2  481163  47212.4  15517.7
   11914.2  482364  47117.3  15475.9
   11915.4  482523  46711.7  15328.6
   11916.3  483736  46396.7  15234.8
   11917.6  483879  45771.1  15074.6
   11918.8  484880  45126.1  14937.8
   11919.7  486453  44682.5  14843.6
   11921  487207  43985.5  14676.9
   11922.2  488096  43377  14513.7
   11923.4  489005  42887  14370.1
   11924.7  490547  42534.5  14279.9
   11925.9  491093  42211.5  14183.3
   11927.1  492597  41990  14115.2
   11928.4  493472  41731  14030.6
   11929.6  494727  41484.5  13931.6
   11930.9  496349  41243.5  13840
   11932.4  497775  40851.1  13671
   11933.7  499092  40562.1  13536.5
   11934.9  499974  40260.7  13395.5
   11936.4  500432  39921.8  13236.1
   11938  502299  39804.3  13171.1
   11939.2  504458  39817.4  13166.7
   11940.8  504679  39709  13142.8
   11942.3  504467  39588.1  13130.4
   11943.6  505566  39637.7  13171.5
   11945.1  509232  39913.8  13290.2
   11946.7  513008  40184.4  13404.4
   11948.2  514939  40344.5  13478.1
   11949.8  515940  40464.2  13546.3
   11951.3  516958  40621.3  13613
   11952.9  519791  40953  13757.3
   11954.8  520585  41202.1  13874
   11956.3  523486  41587.8  14039.3
   11957.9  525150  41913  14189.1
   11959.7  526374  42230.7  14304.4
   11961.3  527969  42526.8  14408.3
   11963.2  530699  42912.5  14527.7
   11964.7  532763  43197.7  14620.5
   11966.6  534700  43471.5  14727
   11968.5  536403  43758.7  14862.9
   11970  538912  44103.4  15041.3
   11971.9  540822  44489.6  15267.3
   11973.8  542904  44985.4  15530.8
   11975.6  544552  45488.6  15778.8
   11977.5  547510  46150.4  16054.3
   11979.4  550081  46770.7  16290.3
   11981.3  552275  47330.4  16510.9
   11983.1  552674  47673.7  16636
   11985  555520  48169.5  16802.6
   11987.2  555868  48406.8  16854.7
   11989.1  559946  48884.6  16974.3
   11991.3  564483  49419.9  17102.5
   11993.2  566736  49732.7  17150.2
   11995.3  569619  50119.1  17217.4
   11997.2  570498  50295.9  17225.1
   11999.4  573544  50639.2  17326.3
   12001.3  576746  50969.1  17440.1
   12003.5  579645  51252.5  17562.4
   12005.7  583037  51558.3  17717.1
   12007.9  584991  51710.7  17809.5
   12010.1  585876  51778.6  17877.3
   12012.3  587691  51891.9  17960.6
   12014.5  592633  52241.8  18145.5
   12016.7  595911  52452.2  18276.9
   12018.9  598967  52651.2  18391.8
   12021.1  602322  52895.6  18532.2
   12023.6  604904  53055.5  18651.2
   12025.8  607901  53184.9  18757.7
   12028  611942  53369.9  18877.7
   12030.5  614301  53343.4  18915.2
   12032.7  617275  53409.3  18978.2
   12035.3  620394  53486.8  19049.7
   12037.8  622224  53471.8  19094.8
   12040  626231  53716.2  19212.4
   12042.5  629466  53994.2  19363.5
   12045  632756  54378.7  19536.1
   12047.6  635741  54796.8  19739.3
   12050.1  637955  55184.2  19918.9
   12052.6  640708  55584.2  20071.1
   12055.2  642525  55858.8  20152.8
   12057.7  644829  56134.8  20228
   12060.2  651240  56799.4  20460.8
   12062.8  655506  57279.4  20654
   12065.3  658478  57627  20815.8
   12068.1  660872  57918.1  20971.1
   12070.7  664712  58358.6  21146.9
   12073.2  668844  58842.7  21307.3
   12076.1  671508  59229.3  21419.1
   12078.6  674426  59614.4  21528.5
   12081.5  678808  60125  21692.4
   12084.3  681605  60482.1  21813.8
   12086.9  685845  60960.7  21976.7
   12089.7  689813  61438.9  22184.2
   12092.6  691200  61691.5  22333.1
   12095.5  696283  62283.7  22628.7
   12098.3  698509  62647.3  22838.7
   12101.2  702102  63117.4  23095.2
   12104.1  705857  63615.1  23353.2
   12107  709866  64116.3  23609.8
   12109.8  712350  64504  23831.9
   12112.7  716274  65019.2  24106.5
   12115.9  719967  65484.9  24378.7
   12118.8  725443  66089.1  24692.3
   12121.6  729038  66546.8  24948.5
   12124.9  732216  67001  25212.2
   12127.7  735313  67452.8  25454.4
   12130.9  739452  68023  25726.1
   12133.8  743202  68523.7  25954.3
   12137  746144  68919  26112.1
   12140.2  750972  69488.7  26333.4
   12143.4  755048  69963  26497.2
   12146.3  757900  70298.8  26631.5
   12149.6  762586  70785.1  26816.4
   12152.8  765942  71107.9  26947.7
   12156  770046  71457.2  27091.6
   12159.2  773192  71731  27216
   12162.4  777920  72163.3  27408.9
   12165.6  781063  72487.1  27575.3
   12169.2  784456  72821.5  27762.3
   12172.4  790086  73409.3  28028.8
   12175.6  792902  73816.7  28259.8
   12178.9  798029  74514.5  28565.3
   12182.4  801613  75083.9  28833.3
   12185.7  805861  75619.8  29074.9
   12189.2  808873  76012.2  29286
   12192.5  812881  76438  29514.6
   12196  817392  76918.4  29780.7
   12199.6  820330  77296.3  30005.3
   12202.8  825929  77940.7  30312.5
   12206.4  829442  78500.6  30607.1
   12210  832790  79124.1  30927.3
   12213.5  837387  79817  31289
   12217.1  841026  80317.4  31595.3
   12220.7  845672  80828.4  31909
   12224.3  850305  81291.8  32204.3
   12227.8  854313  81732.8  32474.1
   12231.4  858499  82297.3  32774.4
   12235  861709  82829.3  33068.2
   12238.9  866513  83485.8  33423.6
   12242.5  869370  83949.7  33679.4
   12246.1  875376  84719.2  34043.8
   12250  880216  85396.2  34341.7
   12253.6  883236  85823.8  34527.2
   12257.5  888304  86444.8  34790.1
   12261.2  891861  86914.3  35016.6
   12265.1  897135  87626.3  35353.5
   12269  898167  87932.9  35536.1
   12272.6  905134  88782.9  35917.1
   12276.6  910303  89487.5  36279.6
   12280.5  913510  90023.6  36554.7
   12284.4  916401  90594.2  36853.3
   12288.4  923252  91545.3  37314.4
   12292.3  926590  92101.8  37647
   12296.3  931619  92818  38048.1
   12300.2  934653  93333.6  38346.8
   12304.2  939381  94005.7  38719.9
   12308.2  943708  94594.4  39066.7
   12312.1  946613  95005.4  39337.9
   12316.1  953322  95757.1  39746.6
   12320.4  956345  96209.2  40037.9
   12324.3  961332  96870.9  40427.6
   12328.7  965340  97472.1  40787.9
   12332.6  969508  98075.8  41157.8
   12336.6  974433  98744.9  41546.1
   12340.9  977632  99272.6  41882.9
   12345.2  981407  99853.8  42228.3
   12349.2  986918  100592  42633.2
   12353.5  989868  101092  42930.6
   12357.9  995474  101896  43363.5
   12362.2  999498  102530  43733
   12366.2  1.00455e+06  103221  44130.9
   12370.5  1.00742e+06  103750  44456.4
   12374.9  1.01397e+06  104671  44952.4
   12379.2  1.01694e+06  105222  45284
   12383.5  1.023e+06  106034  45726
   12387.9  1.02633e+06  106545  46014.6
   12392.6  1.0291e+06  107021  46315.7
   12396.9  1.03595e+06  107927  46789.3
   12401.3  1.04014e+06  108553  47142.4
   12405.6  1.04468e+06  109244  47542.1
   12410.3  1.05043e+06  110087  48013.2
   12414.7  1.05399e+06  110711  48394.9
   12419  1.05852e+06  111488  48829.1
   12423.8  1.0624e+06  112275  49313.8
   12428.1  1.06742e+06  113131  49816
   12432.8  1.07099e+06  113748  50222.8
   12437.6  1.07344e+06  114235  50580.1
   12441.9  1.07856e+06  114961  51032.9
   12446.7  1.08375e+06  115712  51509.2
   12451.4  1.08604e+06  116133  51846.1
   12456.1  1.09196e+06  116953  52347.4
   12460.5  1.09655e+06  117671  52820.3
   12465.3  1.09783e+06  118079  53148.7
   12470  1.10454e+06  119103  53746.6
   12474.7  1.1088e+06  119888  54249
   12479.5  1.11156e+06  120514  54668
   12484.2  1.1175e+06  121475  55241.4
   12489  1.12059e+06  122124  55652.4
   12494.1  1.12585e+06  123050  56218
   12498.9  1.12865e+06  123691  56638
   12503.6  1.13364e+06  124499  57136.5
   12508.4  1.1348e+06  124909  57446.6
   12513.5  1.13622e+06  125366  57799.2
   12518.3  1.14286e+06  126367  58380.3
   12523.4  1.14593e+06  126955  58809
   12528.2  1.15055e+06  127687  59299.1
   12533.4  1.15536e+06  128498  59812.8
   12538.1  1.16054e+06  129335  60343
   12543.3  1.16283e+06  129917  60758.7
   12548.1  1.16691e+06  130640  61245.9
   12553.2  1.1707e+06  131357  61733.6
   12558.4  1.17434e+06  132064  62193.9
   12563.6  1.17885e+06  132922  62775.7
   12568.7  1.18392e+06  133823  63372
   12573.5  1.1859e+06  134324  63754.8
   12578.7  1.18992e+06  135054  64280.1
   12583.9  1.19374e+06  135848  64816
   12589.1  1.1951e+06  136299  65213.4
   12594.2  1.19972e+06  137112  65801.3
   12599.4  1.2041e+06  137862  66338.7
   12605  1.20603e+06  138360  66771.7
   12610.2  1.20941e+06  139049  67300.1
   12615.4  1.21251e+06  139685  67802.1
   12620.6  1.2172e+06  140582  68419.6
   12625.8  1.22334e+06  141637  69118.6
   12631.3  1.22625e+06  142395  69668.1
   12636.6  1.22764e+06  142989  70127.2
   12642.1  1.22981e+06  143651  70646.8
   12647.4  1.23407e+06  144472  71227.9
   12652.9  1.23775e+06  145224  71789.5
   12658.2  1.24109e+06  145917  72321.6
   12663.8  1.24589e+06  146775  72936.3
   12669  1.24872e+06  147407  73439.4
   12674.6  1.25287e+06  148223  74005.2
   12680.2  1.2565e+06  149016  74621.3
   12685.8  1.25714e+06  149450  75039.1
   12691.1  1.26211e+06  150397  75709.3
   12696.7  1.26519e+06  151139  76278.1
   12702.3  1.26894e+06  151933  76880.4
   12708  1.27084e+06  152556  77405.2
   12713.6  1.27509e+06  153445  78075.5
   12719.3  1.27683e+06  154091  78615.4
   12724.9  1.28051e+06  154909  79244.7
   12730.6  1.28275e+06  155632  79837.7
   12736.2  1.28761e+06  156614  80568.1
   12741.9  1.2893e+06  157248  81114
   12747.9  1.29215e+06  158025  81762.4
   12753.6  1.29605e+06  158921  82449.4
   12759.2  1.30094e+06  159881  83190.8
   12764.9  1.30479e+06  160696  83850.9
   12771  1.30566e+06  161201  84340.4
   12776.7  1.30798e+06  161839  84914.4
   12782.4  1.31091e+06  162585  85538
   12788.4  1.31322e+06  163297  86177.1
   12794.1  1.31724e+06  164176  86866.7
   12800.2  1.32003e+06  164928  87501.8
   12806.3  1.3207e+06  165391  87987.4
   12812  1.32579e+06  166427  88789.6
   12818.1  1.32818e+06  167203  89452.2
   12824.2  1.33002e+06  167869  90061.5
   12829.9  1.33227e+06  168543  90638.2
   12836  1.33707e+06  169557  91443.4
   12842.1  1.33719e+06  169970  91937.2
   12848.2  1.3395e+06  170653  92573.5
   12854.4  1.34252e+06  171456  93248.2
   12860.5  1.34569e+06  172261  93936.6
   12866.3  1.34956e+06  173184  94704.4
   12872.4  1.35148e+06  173904  95343.8
   12878.6  1.35208e+06  174475  95931.6
   12885.1  1.35419e+06  175245  96632