File: data/As/as2o5_roomt_scan3.xdi
# XDI/1.0
# Column.1: energy eV
# Column.2: i0
# Column.3: itrans
# Column.4: irefer
# Beamline.name: SSRL 4-1
# Detector.I0: N2 15cm
# Detector.I1: N2 30cm
# Detector.I2: Ar 15cm
# Element.edge: K
# Element.symbol: As
# Mono.d_spacing: 3.13550
# Mono.name: Si(111)
# Mono.notes: unfocused, detuned 40%,counter clockwise at E=12000eV
# Sample.formula: As2O5
# Sample.name: As2O5 arsenic (V) oxide
# Sample.prep: powder, mixed 1:60 with B(OH)3 by wt
# Sample.reference: GaAs powder
# Sample.temperature: room temperature
# Scan.start_time: 1997-01-19 14:49:01
# ///
#    Note: mono d_spacing is nominal!
#     exafs to K15, GaAs in IR
#     320  E XMU XMUR I0
#-------------
#   energy   i0   itrans  irefer
   11650  171833  293054  340659
   11660  171408  292999  341508
   11670  172054  294801  344504
   11680  171072  293775  344256
   11690  170463  293413  344737
   11700  170468  294118  346473
   11710  169794  293597  346783
   11720  169519  293803  347937
   11730  168910  293416  348430
   11740  168941  294148  350214
   11750  167865  292921  349685
   11760  167643  293146  350887
   11770  166748  292254  350710
   11780  167011  293323  352925
   11790  166709  293467  353926
   11800  165806  292424  353623
   11810  164940  291502  353315
   11820  164641  291450  354063
   11830  163961  290653  353759
   11840  163763  290476  353949
   11850  163448  289474  352326
   11850.8  163260  289074  351683
   11851.5  163176  288822  351238
   11852.3  163123  288610  350819
   11853  163097  288436  350448
   11853.8  164056  289965  352060
   11854.5  161999  286147  347165
   11855.3  162654  287163  348044
   11856.1  162241  286180  346431
   11856.8  161193  284069  343461
   11857.6  162497  286131  345413
   11858.3  161420  283843  341940
   11859.1  162014  284486  341747
   11859.9  162066  284134  340268
   11860.6  161800  283135  337442
   11861.4  161910  282651  334742
   11862.1  162287  282615  332067
   11862.9  163669  284141  329646
   11863.6  162800  281401  319071
   11864.4  162111  278823  306002
   11865.2  162043  276897  289537
   11865.9  161963  274280  269020
   11866.7  162466  272060  249745
   11867.4  162948  268808  230639
   11868.2  162715  262028  208934
   11868.9  161454  250792  188402
   11869.7  162067  240674  175397
   11870.5  161640  223305  160481
   11871.2  161817  202079  144788
   11872  162222  181534  130438
   11872.7  162330  158975  115562
   11873.5  162080  138175  103024
   11874.2  162459  126801  97433
   11875  162266  122789  97287
   11875.8  161215  127297  103409
   11876.5  161619  138834  114366
   11877.3  160813  151967  126336
   11878  161617  166457  139471
   11878.8  160612  174704  147413
   11879.5  161010  179431  152175
   11880.3  161468  181673  154744
   11881.1  161284  181444  155077
   11881.8  162210  181932  155833
   11882.6  161573  180628  154991
   11883.3  162322  181284  155555
   11884.1  161847  180770  155113
   11884.8  161203  180003  154421
   11885.6  161709  180344  154690
   11886.4  161501  179696  154192
   11887.1  161670  179419  154025
   11887.9  161224  178428  153286
   11888.6  161225  178247  153192
   11889.4  161001  178380  153265
   11890.1  161342  179775  154380
   11890.9  162053  182276  156407
   11891.7  160967  182879  156920
   11892.4  161321  185515  159306
   11893.2  161520  188160  161816
   11893.9  161441  190015  163781
   11894.7  160915  191265  165324
   11895.5  160824  192774  167175
   11896.2  160497  193590  168323
   11897  160605  194642  169548
   11897.7  160738  195623  170598
   11898.5  160450  195980  170901
   11899.2  160774  197008  171683
   11900  160700  197769  172113
   11901.3  161098  199889  173626
   11902.6  160961  201756  175109
   11903.9  160680  203579  176774
   11905.2  160998  206376  179426
   11906.6  161353  209142  182040
   11908  160359  210388  183300
   11909.4  161241  213451  186009
   11910.8  161107  214673  186908
   11912.2  161088  215137  187023
   11913.6  160578  214167  185830
   11915.1  160945  213671  185194
   11916.6  161513  212958  184767
   11918.1  160552  209801  182655
   11919.6  161391  209066  182863
   11921.2  161170  207012  181887
   11922.7  161636  205965  181573
   11924.3  161981  205220  181240
   11925.9  161788  204180  180483
   11927.6  162122  204166  180530
   11929.2  162671  204685  180880
   11930.9  162866  204827  180669
   11932.5  163111  204721  180054
   11934.2  163927  204932  179564
   11936  164298  204235  178245
   11937.7  164286  202832  176436
   11939.4  164437  201767  175231
   11941.2  164841  201176  174757
   11943  166148  201836  175623
   11944.8  165776  200932  175163
   11946.7  166677  202018  176397
   11948.5  166977  202739  177293
   11950.4  167835  204137  178798
   11952.3  167605  204053  178976
   11954.2  168240  204869  179957
   11956.1  167804  204187  179761
   11958.1  168594  204898  180831
   11960  169411  205720  181773
   11962  169193  205435  181493
   11964  170677  207525  183148
   11966  171330  208805  184174
   11968.1  171671  209874  185272
   11970.2  171911  210831  186726
   11972.2  173726  213653  190239
   11974.3  173370  213783  191472
   11976.5  174547  215792  194156
   11978.6  174630  216649  195442
   11980.8  175214  218326  197184
   11982.9  176224  220717  199401
   11985.1  177626  223595  201926
   11987.3  177932  224914  202777
   11989.6  179085  227060  204070
   11991.8  180208  228868  204921
   11994.1  179367  228038  203321
   11996.4  181188  230629  204712
   11998.7  181422  231230  204497
   12001  181678  231937  204748
   12003.4  183502  234719  207238
   12005.8  184528  236457  209100
   12008.1  184760  237109  210112
   12010.6  186489  239544  212671
   12013  187499  240931  214387
   12015.4  187256  240613  214691
   12017.9  188551  242212  216662
   12020.4  189336  243153  218000
   12022.9  190285  244278  219587
   12025.4  191333  245456  221316
   12027.9  191553  245536  221962
   12030.5  193386  247583  224311
   12033.1  193220  247021  224273
   12035.7  195603  249733  227142
   12038.3  197096  251242  228917
   12040.9  198928  253262  231135
   12043.6  198147  252053  230393
   12046.3  199625  253853  232368
   12049  200904  255439  234222
   12051.7  202306  257267  236155
   12054.4  202712  257840  236599
   12057.2  203540  258982  237257
   12059.9  205221  261347  238992
   12062.7  206072  262668  240091
   12065.5  207077  264179  241738
   12068.4  208054  265642  243425
   12071.2  210323  268831  246450
   12074.1  211700  270875  248083
   12077  212210  271858  248510
   12079.9  213080  273320  249355
   12082.8  214369  275329  250740
   12085.7  216173  277970  252865
   12088.7  216944  279400  254025
   12091.7  218095  281373  255965
   12094.7  219334  283353  258395
   12097.7  220616  285312  260937
   12100.8  222392  287829  264052
   12103.8  223638  289752  266599
   12106.9  225082  292041  269339
   12110  226145  293902  271661
   12113.1  227021  295496  273918
   12116.2  229818  299608  278608
   12119.4  229673  299919  279778
   12122.6  232544  304102  284480
   12125.7  233484  305720  286798
   12129  234980  308040  289607
   12132.2  235192  308716  290606
   12135.4  237359  311932  293819
   12138.7  238938  314444  296083
   12142  240405  316727  297948
   12145.3  242889  320326  300993
   12148.6  244156  322267  302575
   12152  246184  325223  305203
   12155.4  247871  327772  307456
   12158.7  248477  328848  308449
   12162.1  249546  330535  310202
   12165.6  251334  333159  312896
   12169  253400  336091  315965
   12172.5  255147  338595  318678
   12175.9  255172  338804  319307
   12179.4  257353  341848  322524
   12183  258051  342879  323664
   12186.5  260715  346474  327226
   12190  262759  349252  330192
   12193.6  265520  353043  334340
   12197.2  266259  354222  336045
   12200.8  267586  356319  338509
   12204.5  269343  359007  341612
   12208.1  270891  361519  344570
   12211.8  272391  364015  347652
   12215.5  274792  367690  351988
   12219.2  275670  369243  354448
   12222.9  276796  371184  357257
   12226.7  278845  374370  361129
   12230.4  282282  379416  366711
   12234.2  282922  380736  368521
   12238  284699  383533  371829
   12241.9  286217  386005  374724
   12245.7  288231  389150  378092
   12249.6  288718  390233  379120
   12253.4  291901  394965  383507
   12257.3  293044  396982  385310
   12261.3  295011  400201  388472
   12265.2  296791  403180  391587
   12269.2  299028  406811  395389
   12273.1  299405  407864  396643
   12277.1  301873  411754  400740
   12281.1  304339  415686  404862
   12285.2  306527  419296  408829
   12289.2  307963  421840  411917
   12293.3  309132  423986  414780
   12297.4  310995  427112  418504
   12301.5  313934  431642  423659
   12305.6  315850  434777  427435
   12309.8  315950  435419  428715
   12314  317871  438556  432539
   12318.2  320728  442933  437609
   12322.4  322748  446248  441624
   12326.6  325818  451010  447106
   12330.8  325993  451813  448699
   12335.1  330156  458108  455825
   12339.4  331277  460152  458658
   12343.7  333716  463963  463273
   12348  333334  463513  463993
   12352.4  337491  469951  470437
   12356.7  339247  473104  473590
   12361.1  340189  475016  475506
   12365.5  342072  477953  479874
   12369.9  343813  480847  483473
   12374.3  345704  483954  487219
   12378.8  348102  487853  491594
   12383.3  350193  491290  495435
   12387.8  352746  495389  499987
   12392.3  354237  498048  503099
   12396.8  356013  501185  506737
   12401.4  358336  505061  511173
   12405.9  359773  507724  514395
   12410.5  363051  512939  520277
   12415.1  365082  516484  524494
   12419.8  368267  521587  530480
   12424.4  368719  522888  532585
   12429.1  370668  526304  536914
   12433.8  372282  529262  540795
   12438.5  374529  533137  545677
   12443.2  376300  536318  549922
   12447.9  377708  539097  553839
   12452.7  381898  545771  561656
   12457.5  383163  548375  565195
   12462.3  384843  551516  569403
   12467.1  387212  555683  574671
   12471.9  388656  558540  578554
   12476.8  391808  563769  584949
   12481.7  394222  568046  590131
   12486.6  395750  570942  593896
   12491.5  397156  573705  597487
   12496.4  400694  579577  604313
   12501.4  402093  582349  607941
   12506.4  405582  588083  614690
   12511.3  407120  591096  618595
   12516.4  408021  593169  621533
   12521.4  409414  595907  625304
   12526.4  412401  601040  631523
   12531.5  414600  605020  636496
   12536.6  416583  608671  641152
   12541.7  417879  611351  644761
   12546.8  421336  617123  651750
   12552  424316  622259  658021
   12557.1  424953  623961  660712
   12562.3  428784  630324  668384
   12567.5  430314  633298  672573
   12572.8  433394  638595  679205
   12578  434174  640457  682256
   12583.3  437753  646530  689838
   12588.5  438950  649094  693681
   12593.8  441585  653763  699868
   12599.2  443933  658078  705727
   12604.5  443614  658452  707326
   12609.9  445469  662091  712427
   12615.2  449596  669104  721219
   12620.6  452845  674794  728501
   12626  453304  676411  731309
   12631.5  454531  679115  735366
   12636.9  459420  687332  745375
   12642.4  460289  689545  748837
   12647.9  461930  692848  753471
   12653.4  463418  696096  758015
   12658.9  465973  700861  764253
   12664.5  467877  704698  769487
   12670  470531  709664  775947
   12675.6  473197  714726  782531
   12681.2  474516  717724  786928
   12686.8  478717  725097  796192
   12692.5  479335  727050  799537
   12698.1  479870  728915  802808
   12703.8  483948  736077  811967
   12709.5  486533  741048  818680
   12715.2  487211  743079  822211