File: data/As/as2s3_10K_scan2.xdi
# XDI/1.0
# Column.1: energy eV
# Column.2: i0
# Column.3: itrans
# Column.4: irefer
# Beamline.name: SSRL 2-3
# Beamline.notes: vert slits = 0.6mm
# Detector.I0: N2 15cm
# Detector.I1: Ar 30cm
# Detector.I2: Ar 15cm
# Element.edge: K
# Element.symbol: As
# Mono.d_spacing: 3.13550
# Mono.name: Si(111)
# Mono.notes: unfocused, detuned 75%, clockwise at E=12000eV
# Sample.formula: As2S3
# Sample.name: As2S3 arsenious sulfide (orpiment)
# Sample.prep: powder on tape (5 layers)
# Sample.reference: GaAs powder
# Sample.temperature: 10K
# Scan.start_time: 1997-04-19 16:23:01
# ///
#    Note: mono d_spacing is nominal!
#     exafs to K16, GaAs in IR
#     413  E XMU XMUR I0
#-------------
#   energy   i0   itrans  irefer
   11634.9  567867  90474.5  37208
   11644.9  565388  90453.5  37432
   11654.9  562538  90351.5  37598
   11665  559508  90222.5  37776
   11675.1  556485  90102.5  37939
   11684.9  554023  90045.5  38140
   11695  549779  89730.5  38235
   11705.1  547365  89676.5  38427
   11714.9  545454  89713.5  38668
   11725.1  542822  89615.5  38847
   11735  540170  89535.5  39040
   11744.9  537182  89347.5  39171
   11755.1  534127  89216.5  39334
   11765  531947  89171.5  39536
   11775  529336  89037.5  39704
   11784.9  526484  88872.5  39854
   11794.9  523269  88641.5  39977
   11804.9  520373  88447.5  40100
   11814.9  517734  88245.5  40225
   11824.9  515002  87987.5  40315
   11835  512600  87659.5  40348
   11845.1  509338  86865.5  40100
   11845.4  509083  86811.5  40079
   11846  508694  86734.5  40044
   11846.6  509068  86745.5  40047
   11846.9  508808  86676.5  40023
   11847.5  508303  86577.5  39974
   11848.1  508309  86513.5  39949
   11848.4  508348  86487.5  39934
   11849  508366  86440.5  39916
   11849.6  507610  86259.5  39829
   11849.9  507342  86192.5  39795
   11850.6  507070  86062.5  39725
   11850.9  507066  86034.5  39717
   11851.5  506275  85817.5  39614
   11852.1  506011  85689.5  39551
   11852.4  505752  85617.5  39522
   11853  506678  85660.5  39523
   11853.6  505928  85407.5  39400
   11853.9  505757  85330.5  39363
   11854.5  506088  85226.5  39302
   11855.1  506408  85137.5  39248
   11855.4  505767  84952.5  39157
   11856.1  505574  84724.5  39032
   11856.4  505785  84645.5  38985
   11857  505763  84407.5  38823
   11857.6  505606  84111.5  38662
   11857.9  505048  83901.5  38553
   11858.5  505140  83543.5  38353
   11859.1  505195  83198.5  38134
   11859.4  505282  82971.5  38008
   11860  505008  82410.5  37675
   11860.6  504353  81705.5  37266
   11861  504731  81476.5  37116
   11861.6  504676  80656.5  36650
   11861.9  504037  80061.5  36314
   11862.5  503766  78882.5  35611
   11863.1  504284  77524.5  34802
   11863.4  504383  76823.5  34387
   11864  503808  74624.5  33109
   11864.6  503230  71671.5  31415
   11864.9  502791  69831.5  30376
   11865.5  502820  65316.5  27873
   11865.9  502755  63210.5  26736
   11866.5  501864  56649.5  23306
   11867.1  501909  48612.5  19321
   11867.4  502307  44254.5  17245
   11868  502475  35337.5  13155
   11868.6  502123  26932.5  9469
   11868.9  501630  23928.5  8191
   11869.5  502321  18050.5  5713
   11870.1  502362  14988.5  4360
   11870.5  501795  14578.5  4096
   11871.1  500994  15789.5  4271
   11871.4  501281  16911.5  4548
   11872  501467  20683.5  5567
   11872.6  500590  24973.5  6768
   11872.9  499900  27048.5  7373
   11873.5  499766  30909.5  8515
   11874.1  499735  33738.5  9382
   11874.4  499750  34562.5  9654
   11875.1  499750  35772.5  10103
   11875.4  499807  35939.5  10210
   11876  499907  35725.5  10281
   11876.6  500053  35096.5  10254
   11876.9  499677  34786.5  10238
   11877.5  499720  34149.5  10237
   11878.1  500031  33828.5  10309
   11878.4  500101  33755.5  10365
   11879  499430  33749.5  10500
   11879.4  499258  33807.5  10568
   11880  499825  34092.5  10750
   11880.6  499710  34391.5  10916
   11880.9  499273  34518.5  10987
   11881.5  498609  34754.5  11123
   11882.1  499073  35065.5  11268
   11882.4  498931  35149.5  11307
   11883  499026  35379.5  11398
   11883.7  498150  35531.5  11465
   11884  497877  35621.5  11496
   11884.6  497683  35802.5  11548
   11884.9  497286  35845.5  11558
   11885.5  496800  35984.5  11601
   11886.1  496373  36099.5  11634
   11886.4  496623  36179.5  11662
   11887  497336  36379.5  11735
   11887.6  496331  36431.5  11762
   11888  496355  36480.5  11788
   11888.6  496521  36636.5  11848
   11888.9  496995  36736.5  11884
   11889.5  496851  36887.5  11932
   11890.1  496536  37037.5  11988
   11890.4  496240  37093.5  11998
   11891  496777  37328.5  12067
   11891.6  496201  37479.5  12114
   11892  496115  37574.5  12137
   11892.6  496247  37798.5  12208
   11892.9  496864  37927.5  12245
   11893.5  496163  38081.5  12300
   11894.1  495445  38238.5  12357
   11894.4  495318  38332.5  12404
   11895  495334  38536.5  12497
   11895.6  495494  38763.2  12607.8
   11896.3  494970  38910.5  12699
   11896.9  495261  39130.3  12825.8
   11897.5  495016  39303.6  12917.2
   11898.4  495365  39609.4  13051
   11899  495019  39746.6  13112.3
   11899.7  495108  39910.4  13159.2
   11900.6  495299  40139.8  13212.6
   11901.2  496170  40327.6  13258.5
   11902.1  495976  40453.9  13279
   11903  495971  40564.7  13307.9
   11903.7  496071  40617.1  13326.4
   11904.6  496666  40697.9  13363.4
   11905.5  496582  40701.3  13376.9
   11906.4  497206  40710.1  13403.9
   11907.4  498253  40725.5  13417.5
   11908.3  498483  40632.4  13406.6
   11909.2  499871  40617.7  13417.1
   11910.1  499780  40456.6  13369.3
   11911.1  500315  40304.1  13314.9
   11912.3  500992  40034  13212
   11913.2  501456  39837.4  13134.7
   11914.2  502565  39645.3  13059.9
   11915.4  503235  39315.7  12934.6
   11916.3  503687  39070.7  12859.8
   11917.6  504930  38782.1  12778.6
   11918.8  505232  38476.1  12726.8
   11919.7  507453  38393.5  12753.6
   11921  507673  38136.5  12719.9
   11922.2  508803  37991  12723.7
   11923.4  510250  37911  12730.1
   11924.7  510816  37819.5  12715.9
   11925.9  511746  37782.5  12720.3
   11927.1  513061  37827  12747.2
   11928.4  514316  37903  12779.6
   11929.6  515393  37994.5  12805.6
   11930.9  517621  38180.6  12862
   11932.4  518614  38328.1  12877
   11933.7  519081  38472.1  12899.5
   11934.9  520926  38756.7  12955.5
   11936.4  522348  39104.8  13023.1
   11938  524327  39526.4  13126.1
   11939.2  525440  39827.4  13212.7
   11940.8  526281  40225  13348.8
   11942.3  526974  40595.1  13490.4
   11943.6  527139  40877.7  13608.5
   11945.1  529809  41431.8  13826.2
   11946.7  533682  42065.4  14055.4
   11948.2  536141  42571.5  14251.1
   11949.8  537760  42981.2  14422.3
   11951.3  539205  43335.3  14560
   11952.9  541308  43707  14714.3
   11954.8  543516  44057.2  14863
   11956.3  545546  44325.8  14999.3
   11957.9  547481  44542  15110.1
   11959.7  548262  44632.6  15166.4
   11961.3  550885  44837.8  15245.3
   11963.2  553117  44971.5  15278.7
   11964.7  554759  45050.7  15304.5
   11966.6  556845  45121.4  15322
   11968.5  560013  45265.7  15404.9
   11970  561804  45299.4  15467.3
   11971.9  563932  45334.7  15564.3
   11973.8  565688  45328.4  15660.8
   11975.6  568441  45400.6  15775.8
   11977.5  570502  45406.4  15831.3
   11979.4  573269  45474.7  15888.3
   11981.3  574975  45460.4  15897.9
   11983.1  578582  45593.7  15949
   11985  579341  45524.5  15933.6
   11987.2  580637  45488.8  15908.7
   11989.1  582915  45559.6  15896.3
   11991.3  587340  45808.9  15929.5
   11993.2  590690  46019.7  15954.2
   11995.3  592389  46138.1  15922.4
   11997.2  595044  46370.9  15951.1
   11999.4  597990  46669.2  16025.3
   12001.3  600385  46968.1  16120.1
   12003.5  603069  47349.5  16269.4
   12005.7  606272  47835.3  16474.1
   12007.9  609043  48305.7  16683.4
   12010.1  610702  48748.5  16871.3
   12012.3  611755  49134.9  17050.6
   12014.5  616145  49814.8  17346.5
   12016.7  619476  50413.3  17608.9
   12018.9  623301  51036.2  17862.8
   12021.1  626235  51551.6  18103.2
   12023.6  628692  52017.5  18335.2
   12025.8  631672  52446  18550.7
   12028  635872  52898.9  18758.6
   12030.5  638229  53177.4  18911.2
   12032.7  642188  53574.3  19094.2
   12035.3  644189  53757.8  19205.7
   12037.8  646775  53968.7  19335.8
   12040  650945  54311.2  19492.4
   12042.5  653460  54478.2  19598.5
   12045  657088  54724.7  19723.1
   12047.6  659354  54845.7  19811.3
   12050.1  662549  55048.2  19924.9
   12052.6  666460  55305.3  20040.1
   12055.2  668574  55401.8  20073.8
   12057.7  670141  55459.8  20061
   12060.2  675757  55871.4  20191.8
   12062.8  680725  56233.4  20335
   12065.3  684663  56515  20481.8
   12068.1  687108  56691.1  20583.1
   12070.7  691215  57009.7  20721.9
   12073.2  694170  57278.7  20814.3
   12076.1  698454  57646.3  20934.1
   12078.6  699856  57832.4  20971.5
   12081.5  705166  58365  21138.4
   12084.3  706899  58614.2  21214.8
   12086.9  711483  59110.7  21392.7
   12089.7  715330  59586.9  21571.2
   12092.6  720830  60206.5  21845.2
   12095.5  723835  60655.7  22087.7
   12098.3  726947  61121.3  22331.7
   12101.2  729864  61578.5  22583.2
   12104.1  734136  62151.2  22873.3
   12107  737898  62702.3  23144.8
   12109.8  740388  63143  23380.9
   12112.7  744838  63743.2  23682.5
   12115.9  748917  64331.9  24002.6
   12118.8  754973  65048.1  24360.3
   12121.6  758847  65573.8  24638.5
   12124.9  762259  66032  24904.2
   12127.7  763328  66262.8  25059.4
   12130.9  769713  66947  25385.1
   12133.8  774465  67446.8  25614.3
   12137  777215  67774  25765.1
   12140.2  781920  68260.7  25956.4
   12143.4  786728  68715.1  26109.2
   12146.3  789827  68996.8  26214.5
   12149.6  793736  69360.1  26354.4
   12152.8  798494  69778.9  26518.7
   12156  799833  69895.2  26579.6
   12159.2  805455  70388  26790
   12162.4  807675  70593.3  26894.9
   12165.6  811262  70921.2  27058.4
   12169.2  814208  71227.5  27234.3
   12172.4  818286  71655.3  27440.8
   12175.6  823993  72228.7  27733.8
   12178.9  826304  72521.5  27886.3
   12182.4  831403  73101.9  28147.3
   12185.7  835277  73581.8  28368.9
   12189.2  839617  74143.1  28638
   12192.5  843796  74679  28915.6
   12196  849386  75379.4  29251.7
   12199.6  854271  76029.3  29582.3
   12202.8  857927  76560.7  29855.5
   12206.4  863759  77313.6  30221.1
   12210  868770  77993.1  30563.3
   12213.5  873527  78650  30919
   12217.1  877335  79234.4  31241.3
   12220.7  881893  79871.4  31617
   12224.3  886608  80508.8  31975.3
   12227.8  890027  81040.8  32289.1
   12231.4  892652  81453.3  32532.4
   12235  896405  82002.2  32828.2
   12238.9  900656  82579.7  33149.6
   12242.5  903749  83045.7  33405.4
   12246.1  909947  83759.2  33753.8
   12250  914596  84386.2  34031.7
   12253.6  915754  84640.8  34157.2
   12257.5  922685  85427.8  34490.1
   12261.2  927394  85998.4  34740.6
   12265.1  930587  86428.3  34957.5
   12269  935114  86978.9  35240
   12272.6  941918  87728.9  35597.1
   12276.6  944461  88086.6  35807.6
   12280.5  949583  88680.6  36092.7
   12284.4  955846  89374.2  36460.3
   12288.4  959756  89869.2  36728.3
   12292.3  962343  90256.9  36986
   12296.3  968638  90987  37377.1
   12300.2  972987  91543.6  37715.8
   12304.2  974965  91901.7  37961.9
   12308.2  979738  92518.3  38310.6
   12312.1  984397  93163.5  38675.9
   12316.1  988866  93789.1  39032.6
   12320.4  993042  94409.3  39411.9
   12324.3  996282  94943.9  39728.6
   12328.7  1.00166e+06  95708  40153.9
   12332.6  1.00701e+06  96449.8  40577.8
   12336.6  1.01215e+06  97198.9  41000.1
   12340.9  1.01778e+06  98011.6  41461.9
   12345.2  1.02148e+06  98617.8  41830.3
   12349.2  1.02581e+06  99295.5  42203.2
   12353.5  1.03306e+06  100272  42715.6
   12357.9  1.0364e+06  100875  43065.5
   12362.2  1.04059e+06  101543  43444
   12366.2  1.04625e+06  102344  43883.9
   12370.5  1.05024e+06  102980  44252.4
   12374.9  1.05426e+06  103623  44639.5
   12379.2  1.05826e+06  104244  44994
   12383.5  1.06286e+06  104923  45366
   12387.9  1.06674e+06  105523  45702.6
   12392.6  1.06991e+06  106068  46020.7
   12396.9  1.07531e+06  106793  46425.3
   12401.3  1.08007e+06  107466  46827.4
   12405.6  1.08495e+06  108155  47218.1
   12410.3  1.08784e+06  108642  47531.2
   12414.7  1.09275e+06  109343  47933.9
   12419  1.09751e+06  109995  48307.1
   12423.8  1.10155e+06  110609  48694.8
   12428.1  1.10425e+06  111117  49045.1
   12432.8  1.10739e+06  111658  49418.8
   12437.6  1.11274e+06  112422  49891.1
   12441.9  1.11711e+06  113107  50309.9
   12446.7  1.12215e+06  113894  50816.2
   12451.4  1.12697e+06  114622  51287
   12456.1  1.12805e+06  115005  51598.4
   12460.5  1.13318e+06  115784  52087.3
   12465.3  1.13649e+06  116427  52531.7
   12470  1.14428e+06  117502  53153.6
   12474.7  1.1457e+06  117965  53510
   12479.5  1.14985e+06  118683  53968
   12484.2  1.15439e+06  119449  54452.5
   12489  1.15951e+06  120279  54964.5
   12494.1  1.162e+06  120870  55356.9
   12498.9  1.1644e+06  121443  55739
   12503.6  1.17139e+06  122461  56320.6
   12508.4  1.17598e+06  123251  56810.6
   12513.5  1.17722e+06  123720  57171.2
   12518.3  1.18298e+06  124616  57726.3
   12523.4  1.18699e+06  125355  58211.9
   12528.2  1.19057e+06  126022  58659.1
   12533.4  1.19386e+06  126695  59119.7
   12538.1  1.19923e+06  127550  59653
   12543.3  1.2017e+06  128118  60071.6
   12548.1  1.20575e+06  128834  60531.9
   12553.2  1.20799e+06  129361  60927.7
   12558.4  1.21162e+06  130046  61417.9
   12563.6  1.21353e+06  130523  61806.7
   12568.7  1.21886e+06  131381  62377
   12573.5  1.22292e+06  132117  62858.8
   12578.7  1.22779e+06  132934  63433.2
   12583.9  1.23084e+06  133567  63889
   12589.1  1.23575e+06  134410  64470.4
   12594.2  1.23886e+06  135040  64975.3
   12599.4  1.24272e+06  135770  65496.7
   12605  1.24476e+06  136339  65988.7
   12610.2  1.24932e+06  137143  66562.1
   12615.4  1.25168e+06  137752  67039.1
   12620.6  1.25601e+06  138582  67606.6
   12625.8  1.26168e+06  139552  68276.6
   12631.3  1.26441e+06  140247  68797.1
   12636.6  1.26778e+06  140955  69348.2
   12642.1  1.27072e+06  141664  69876.8
   12647.4  1.27333e+06  142335  70374.9
   12652.9  1.27783e+06  143240  71000.5
   12658.2  1.28097e+06  143940  71528.6
   12663.8  1.28236e+06  144511  72003.3
   12669  1.28673e+06  145367  72599.5
   12674.6  1.29151e+06  146318  73269.1
   12680.2  1.29481e+06  147069  73848.3
   12685.8  1.295e+06  147491  74234.1
   12691.1  1.30126e+06  148554  74947.4
   12696.7  1.30457e+06  149304  75541.1
   12702.3  1.30548e+06  149793  75988.4
   12708  1.30833e+06  150520  76558.2
   12713.6  1.3119e+06  151272  77168.5
   12719.3  1.31608e+06  152148  77822.4
   12724.9  1.31667e+06  152565  78231.8
   12730.6  1.32028e+06  153369  78868.6
   12736.2  1.32356e+06  154129  79464.1
   12741.9  1.32695e+06  154885  80093.9
   12747.9  1.32922e+06  155561  80681.4
   12753.6  1.33123e+06  156161  81206.4
   12759.2  1.33594e+06  157103  81920.8
   12764.9  1.3375e+06  157665  82443.9
   12771  1.34053e+06  158447  83102.4
   12776.7  1.34438e+06  159295  83769.4
   12782.4  1.34858e+06  160194  84457
   12788.4  1.35049e+06  160841  85058
   12794.1  1.35266e+06  161502  85648.7
   12800.2  1.353e+06  162014  86163.8
   12806.3  1.35434e+06  162619  86732.4
   12812  1.35556e+06  163162  87256.6
   12818.1  1.35982e+06  164120  87999.3
   12824.2  1.36028e+06  164634  88527.4
   12829.9  1.36341e+06  165428  89187.2
   12836  1.36358e+06  165903  89670.4
   12842.1  1.36465e+06  166491  90250.1
   12848.2  1.36371e+06  166817  90676.4
   12854.4  1.36644e+06  167611  91375.2
   12860.5  1.36849e+06  168295  92017.5
   12866.3  1.36134e+06  167860  92013.4
   12872.4  1.36375e+06  168620  92682.7
   12878.6  1.36492e+06  169191  93277.6
   12885.1  1.36431e+06  169580  93750