File: data/As/as2s3_10K_scan3.xdi
# XDI/1.0
# Column.1: energy eV
# Column.2: i0
# Column.3: itrans
# Column.4: irefer
# Beamline.name: SSRL 2-3
# Beamline.notes: vert slits = 0.6mm
# Detector.I0: N2 15cm
# Detector.I1: Ar 30cm
# Detector.I2: Ar 15cm
# Element.edge: K
# Element.symbol: As
# Mono.d_spacing: 3.13550
# Mono.name: Si(111)
# Mono.notes: unfocused, detuned 75%, clockwise at E=12000eV
# Sample.formula: As2S3
# Sample.name: As2S3 arsenious sulfide (orpiment)
# Sample.prep: powder on tape (5 layers)
# Sample.reference: GaAs powder
# Sample.temperature: 10K
# Scan.start_time: 1997-04-19 16:23:01
# ///
#    Note: mono d_spacing is nominal!
#     exafs to K16, GaAs in IR
#     413  E XMU XMUR I0
#-------------
#   energy   i0   itrans  irefer
   11634.9  553511  88214.5  36276
   11644.9  550935  88169.5  36479
   11654.9  548612  88148.5  36683
   11665  546437  88146.5  36893
   11675.1  543773  88079.5  37092
   11684.9  540485  87877.5  37222
   11695  536227  87526.5  37274
   11705.1  533727  87478.5  37488
   11714.9  532276  87565.5  37733
   11725.1  530964  87684.5  38007
   11735  527960  87529.5  38160
   11744.9  523742  87157.5  38209
   11755.1  521620  87119.5  38422
   11765  518694  86980.5  38566
   11775  516199  86870.5  38726
   11784.9  514586  86884.5  38942
   11794.9  511671  86686.5  39088
   11804.9  508431  86430.5  39180
   11814.9  505185  86124.5  39266
   11824.9  502909  85933.5  39363
   11835  500924  85673.5  39420
   11845.1  498513  85034.5  39242
   11845.4  497258  84809.5  39136
   11846  497124  84735.5  39112
   11846.6  497065  84695.5  39097
   11846.9  498713  84972.5  39226
   11847.5  498033  84803.5  39150
   11848.1  496622  84527.5  39016
   11848.4  497224  84598.5  39050
   11849  497017  84502.5  39009
   11849.6  497082  84477.5  39001
   11849.9  495609  84181.5  38876
   11850.6  495804  84132.5  38836
   11850.9  495063  83988.5  38774
   11851.5  494768  83863.5  38712
   11852.1  493826  83593.5  38578
   11852.4  493502  83507.5  38538
   11853  494439  83561.5  38552
   11853.6  494290  83420.5  38476
   11853.9  493808  83280.5  38403
   11854.5  493014  82996.5  38260
   11855.1  494447  83059.5  38267
   11855.4  494584  83018.5  38251
   11856.1  493918  82717.5  38084
   11856.4  492859  82423.5  37944
   11857  493685  82330.5  37877
   11857.6  493149  81970.5  37676
   11857.9  492660  81762.5  37555
   11858.5  492011  81305.5  37298
   11859.1  493256  81129.5  37168
   11859.4  494225  81082.5  37130
   11860  492886  80345.5  36706
   11860.6  492292  79634.5  36313
   11861  492451  79345.5  36136
   11861.6  492837  78605.5  35679
   11861.9  492817  78101.5  35390
   11862.5  491308  76733.5  34606
   11863.1  490921  75207.5  33717
   11863.4  492201  74686.5  33385
   11864  492749  72545.5  32116
   11864.6  491058  69329.5  30310
   11864.9  490733  67499.5  29281
   11865.5  490183  62884.5  26739
   11865.9  490214  60829.5  25630
   11866.5  489667  54307.5  22246
   11867.1  488049  46173.5  18259
   11867.4  489201  41920.5  16240
   11868  489804  33425.5  12368
   11868.6  489453  25262.5  8811
   11868.9  489386  22478.5  7629
   11869.5  489076  16993.5  5313
   11870.1  490031  14474.5  4167
   11870.5  490233  14281.5  3988
   11871.1  488495  15729.5  4246
   11871.4  488028  16889.5  4540
   11872  488951  20710.5  5577
   11872.6  488301  24890.5  6762
   11872.9  487597  26971.5  7368
   11873.5  486287  30505.5  8409
   11874.1  487002  33107.5  9222
   11874.4  487476  33885.5  9475.99
   11875.1  486888  34881.5  9865.01
   11875.4  486773  35004.5  9962
   11876  487031  34737.5  10014
   11876.6  487399  34134.5  9997
   11876.9  487087  33844.5  9987
   11877.5  486609  33220.5  9981
   11878.1  486532  32890.5  10046
   11878.4  487456  32903.5  10125
   11879  486494  32896.5  10254
   11879.4  486531  32972.5  10317
   11880  486565  33219.5  10496
   11880.6  487549  33605.5  10677
   11880.9  487804  33763.5  10762
   11881.5  486819  33968.5  10876
   11882.1  486683  34229.5  10997
   11882.4  487305  34350.5  11051
   11883  487515  34602.5  11156
   11883.7  485640  34667.5  11187
   11884  486422  34821.5  11239
   11884.6  486210  34993.5  11291
   11884.9  486684  35101.5  11321
   11885.5  485343  35178.5  11345
   11886.1  485393  35319.5  11386
   11886.4  484694  35345.5  11401
   11887  485456  35524.5  11466
   11887.6  484679  35584.5  11494
   11888  484620  35639.5  11522
   11888.6  485159  35816.5  11588
   11888.9  486647  35996.5  11642
   11889.5  486893  36180.5  11709
   11890.1  484891  36192.5  11711
   11890.4  485347  36313.5  11749
   11891  486041  36549.5  11818
   11891.6  486337  36761.5  11876
   11892  485164  36775.5  11879
   11892.6  484459  36921.5  11917
   11892.9  486240  37141.5  11987
   11893.5  485538  37300.5  12043
   11894.1  484456  37425.5  12099
   11894.4  484566  37522.5  12145
   11895  484439  37733.5  12236
   11895.6  484881  37959.3  12357.8
   11896.3  484567  38130.5  12456
   11896.9  484216  38293.3  12547.8
   11897.5  484472  38497.5  12655.2
   11898.4  485501  38849.3  12802
   11899  484711  38944.6  12840.3
   11899.7  484975  39120.4  12892.2
   11900.6  484933  39317.8  12936.6
   11901.2  486125  39518.6  12991.5
   11902.1  486136  39653.9  13014
   11903  486162  39759.7  13040.9
   11903.7  486506  39831.1  13057.4
   11904.6  487150  39917.9  13105.4
   11905.5  486755  39888.2  13109.9
   11906.4  488015  39950.1  13152.9
   11907.4  486768  39779.5  13113.5
   11908.3  487987  39776.4  13124.6
   11909.2  489173  39742.8  13123.2
   11910.1  489853  39633.6  13091.3
   11911.1  490507  39479.1  13034.9
   11912.3  490762  39203  12938
   11913.2  492586  39096.4  12891.7
   11914.2  493622  38917.3  12817.9
   11915.4  493663  38541.7  12680.6
   11916.3  494269  38298.7  12602.8
   11917.6  494714  37992.1  12517.6
   11918.8  495765  37722.1  12482.8
   11919.7  495965  37513.5  12457.6
   11921  496658  37297.5  12443.9
   11922.2  496850  37083  12423.7
   11923.4  499522  37109  12458.1
   11924.7  500000  37009.5  12445
   11925.9  501114  36995.5  12450.3
   11927.1  501001  36936  12442.2
   11928.4  502969  37063  12487.7
   11929.6  504452  37182.5  12529.6
   11930.9  505997  37323.6  12563
   11932.4  506675  37458.1  12582
   11933.7  506362  37540.1  12575.5
   11934.9  507750  37788.7  12626.5
   11936.4  508850  38106.8  12684.1
   11938  511651  38584.4  12804.1
   11939.2  512047  38833.4  12880.7
   11940.8  512164  39165  12995.8
   11942.3  512250  39491.1  13123.4
   11943.6  513809  39862.7  13268.5
   11945.1  517136  40455.8  13499.2
   11946.7  520309  41025.4  13714.4
   11948.2  522208  41482.5  13889.1
   11949.8  523145  41833.2  14034.3
   11951.3  524250  42159.3  14171
   11952.9  526683  42528  14313.3
   11954.8  528880  42881.1  14465
   11956.3  530459  43112.8  14583.3
   11957.9  532497  43327  14692.1
   11959.7  533840  43462.7  14763.4
   11961.3  535530  43579.8  14816.3
   11963.2  537461  43700.5  14842.7
   11964.7  541180  43938.7  14916.5
   11966.6  542826  43980.5  14939
   11968.5  544223  43988.7  14963.9
   11970  548049  44194.4  15080.3
   11971.9  549918  44202.6  15175.3
   11973.8  551243  44175.4  15267.8
   11975.6  554214  44249.6  15377.8
   11977.5  557749  44390.4  15477.3
   11979.4  561258  44530.7  15549.3
   11981.3  562779  44496.4  15555.9
   11983.1  566568  44652.7  15620
   11985  567489  44596.5  15599.6
   11987.2  569545  44619.8  15593.7
   11989.1  570614  44603.6  15556.3
   11991.3  576301  44944.9  15616.5
   11993.2  580494  45217.7  15658.2
   11995.3  583101  45401  15658.4
   11997.2  587192  45739.9  15728.1
   11999.4  589691  46019.2  15785.3
   12001.3  592538  46339.1  15900.1
   12003.5  593868  46619.4  16006.4
   12005.7  596927  47079.3  16198.1
   12007.9  599854  47573.7  16420.4
   12010.1  601715  48004.6  16615.3
   12012.3  602694  48392.9  16785.6
   12014.5  607449  49105.9  17086.5
   12016.7  612037  49790.3  17374.9
   12018.9  615018  50335.1  17621.8
   12021.1  618121  50859.6  17849.2
   12023.6  621875  51429.5  18112.2
   12025.8  624837  51864.9  18319.7
   12028  629053  52331.9  18540.7
   12030.5  631652  52618.4  18695.2
   12032.7  634238  52898.3  18835.2
   12035.3  638504  53269.8  19020.7
   12037.8  641233  53490.7  19136.8
   12040  645268  53827.2  19307.4
   12042.5  649139  54110.2  19450.5
   12045  651352  54248.7  19534.1
   12047.6  655387  54511.7  19671.3
   12050.1  657333  54603.2  19758.9
   12052.6  661815  54902.2  19878.1
   12055.2  663462  54963.8  19891.8
   12057.7  666124  55112.8  19923
   12060.2  669690  55371.4  19994.8
   12062.8  676127  55852.4  20183
   12065.3  679706  56098  20307.8
   12068.1  680904  56169.1  20386.1
   12070.7  687123  56678.6  20589.9
   12073.2  690087  56913.7  20671.3
   12076.1  693921  57272.3  20785.1
   12078.6  695243  57432.4  20807.5
   12081.5  700338  57951  20969.4
   12084.3  703596  58326.1  21095.8
   12086.9  706610  58694.7  21212.7
   12089.7  711414  59265.9  21445.2
   12092.6  715379  59755.5  21660.2
   12095.5  718554  60202.7  21901.7
   12098.3  719585  60490.3  22094.7
   12101.2  724409  61098.5  22390.2
   12104.1  726203  61478.2  22600.3
   12107  732038  62199.3  22940.8
   12109.8  734119  62589  23149.9
   12112.7  737994  63157.2  23450.5
   12115.9  742047  63735.9  23758.6
   12118.8  748094  64459.1  24124.3
   12121.6  750231  64822.8  24344.5
   12124.9  754671  65377.1  24647.2
   12127.7  756517  65668.8  24825.4
   12130.9  762836  66348  25145.1
   12133.8  767532  66847.8  25368.3
   12137  769337  67092  25486.1
   12140.2  773273  67502.8  25655.4
   12143.4  778334  67985  25811.2
   12146.3  782425  68363.8  25954.5
   12149.6  785616  68649.1  26071.4
   12152.8  791360  69141.9  26261.7
   12156  794196  69393.2  26364.6
   12159.2  799788  69876  26570
   12162.4  803612  70224.3  26743.9
   12165.6  806502  70510.1  26892.4
   12169.2  810818  70930.5  27107.3
   12172.4  815612  71422.3  27342.8
   12175.6  820378  71909.6  27582.8
   12178.9  824971  72406.5  27829.3
   12182.4  828601  72850.9  28043.3
   12185.7  832187  73308.7  28248.9
   12189.2  836931  73901.1  28527
   12192.5  840213  74375  28767.6
   12196  844557  74963.4  29086.7
   12199.6  850040  75650.3  29416.3
   12202.8  853999  76217.7  29705.5
   12206.4  857708  76771.6  29982.1
   12210  863258  77492  30349.3
   12213.5  865481  77931  30617
   12217.1  870753  78636.4  30995.3
   12220.7  873790  79106.4  31282
   12224.3  879193  79838.8  31697.3
   12227.8  883651  80434.8  32024.1
   12231.4  885613  80823.3  32268.4
   12235  891952  81588.3  32646.2
   12238.9  895663  82141.7  32942.6
   12242.5  899582  82661.7  33233.4
   12246.1  904155  83250.2  33515.8
   12250  908536  83815.2  33786.7
   12253.6  912987  84379.7  34035.1
   12257.5  918079  84987.8  34280.1
   12261.2  921828  85479.3  34503.6
   12265.1  926080  85998.3  34770.5
   12269  929363  86421.9  34986.1
   12272.6  934799  87041  35299.1
   12276.6  938331  87496.5  35533.6
   12280.5  944636  88205.6  35879.7
   12284.4  948130  88647.2  36128.3
   12288.4  952234  89146.3  36408.4
   12292.3  956709  89707.9  36743
   12296.3  960620  90203.9  37043.1
   12300.2  963739  90656.6  37330.8
   12304.2  969596  91378.7  37730
   12308.2  973932  91957.3  38064.6
   12312.1  978214  92549.4  38397.9
   12316.1  980992  93015.1  38694.6
   12320.4  986122  93726.3  39083.9
   12324.3  988829  94220.9  39395.6
   12328.7  993641  94921  39810.9
   12332.6  994465  95235.8  40036.8
   12336.6  1.00118e+06  96129.9  40526.1
   12340.9  1.00432e+06  96705.6  40889.9
   12345.2  1.01005e+06  97509.8  41333.3
   12349.2  1.01373e+06  98114.5  41688.2
   12353.5  1.01955e+06  98948.7  42112.6
   12357.9  1.02201e+06  99443.5  42437.5
   12362.2  1.02883e+06  100375  42929
   12366.2  1.02897e+06  100629  43124.9
   12370.5  1.03227e+06  101220  43479.5
   12374.9  1.03694e+06  101910  43878.4
   12379.2  1.0383e+06  102273  44124
   12383.5  1.04047e+06  102701  44386
   12387.9  1.04191e+06  103066  44623.6
   12392.6  1.04394e+06  103466  44876.7
   12396.9  1.04618e+06  103899  45156.3
   12401.3  1.05e+06  104472  45491.4
   12405.6  1.05394e+06  105064  45836
   12410.3  1.05563e+06  105432  46096.2
   12414.7  1.06144e+06  106190  46523.9
   12419  1.0634e+06  106568  46791.1
   12423.8  1.06649e+06  107090  47130.8
   12428.1  1.07315e+06  107957  47629.1
   12432.8  1.07674e+06  108556  48020.8
   12437.6  1.08018e+06  109128  48416.1
   12441.9  1.08598e+06  109937  48886.9
   12446.7  1.08936e+06  110542  49316.2
   12451.4  1.09385e+06  111260  49776
   12456.1  1.09762e+06  111894  50199.4
   12460.5  1.10125e+06  112530  50622.3
   12465.3  1.10599e+06  113305  51102.7
   12470  1.11009e+06  114009  51554.6
   12474.7  1.11682e+06  114965  52138
   12479.5  1.11907e+06  115506  52518
   12484.2  1.12304e+06  116204  52961.5
   12489  1.12589e+06  116829  53369.5
   12494.1  1.12919e+06  117458  53785
   12498.9  1.1345e+06  118314  54296
   12503.6  1.13896e+06  119097  54768.6
   12508.4  1.14298e+06  119802  55211.6
   12513.5  1.14637e+06  120488  55680.2
   12518.3  1.15197e+06  121358  56205.3
   12523.4  1.15305e+06  121796  56550.9
   12528.2  1.1595e+06  122742  57120.1
   12533.4  1.16187e+06  123306  57519.7
   12538.1  1.16609e+06  124023  57980
   12543.3  1.16921e+06  124666  58431.7
   12548.1  1.17494e+06  125542  58978.9
   12553.2  1.17932e+06  126286  59497.6
   12558.4  1.18144e+06  126822  59878.9
   12563.6  1.18568e+06  127557  60386.7
   12568.7  1.18909e+06  128216  60854
   12573.5  1.19257e+06  128819  61280.8
   12578.7  1.19829e+06  129758  61897.1
   12583.9  1.20197e+06  130435  62390
   12589.1  1.20559e+06  131131  62903.4
   12594.2  1.20691e+06  131579  63296.3
   12599.4  1.20886e+06  132096  63717.7
   12605  1.21257e+06  132803  64242.6
   12610.2  1.21585e+06  133503  64764.1
   12615.4  1.21696e+06  133940  65165.1
   12620.6  1.22134e+06  134761  65728.6
   12625.8  1.22461e+06  135474  66246.6
   12631.3  1.22899e+06  136304  66853.1
   12636.6  1.22889e+06  136668  67201.2
   12642.1  1.23278e+06  137470  67786.8
   12647.4  1.23748e+06  138352  68386.9
   12652.9  1.2383e+06  138814  68809.5
   12658.2  1.24102e+06  139483  69306.6
   12663.8  1.24396e+06  140207  69839.3
   12669  1.2476e+06  140966  70391.4
   12674.6  1.25083e+06  141739  70957.2
   12680.2  1.25498e+06  142531  71554.3
   12685.8  1.25517e+06  142946  71929.1
   12691.1  1.26072e+06  143937  72605.4
   12696.7  1.26307e+06  144552  73119.1
   12702.3  1.26565e+06  145253  73663.4
   12708  1.26995e+06  146088  74284.2
   12713.6  1.27165e+06  146635  74775.5
   12719.3  1.27467e+06  147355  75345.4
   12724.9  1.27809e+06  148090  75928.7
   12730.6  1.28298e+06  149020  76598.6
   12736.2  1.28916e+06  150107  77387
   12741.9  1.2941e+06  151042  78083.9
   12747.9  1.29711e+06  151770  78695.4
   12753.6  1.30118e+06  152637  79360.4
   12759.2  1.30461e+06  153415  79962.8
   12764.9  1.3072e+06  154078  80536.8
   12771  1.312e+06  155055  81297.4
   12776.7  1.3121e+06  155450  81737.4
   12782.4  1.31552e+06  156238  82362
   12788.4  1.31861e+06  157036  83032.1
   12794.1  1.32421e+06  158109  83828.7
   12800.2  1.32238e+06  158356  84197.8
   12806.3  1.32492e+06  159087  84835.4
   12812  1.32891e+06  159952  85537.6
   12818.1  1.33303e+06  160871  86262.3
   12824.2  1.33227e+06  161240  86704.4
   12829.9  1.33895e+06  162465  87577.2
   12836  1.34163e+06  163236  88236.4
   12842.1  1.34183e+06  163698  88731.2
   12848.2  1.34813e+06  164890  89612.5
   12854.4  1.35076e+06  165684  90302.3
   12860.5  1.35576e+06  166711  91107.6
   12866.3  1.35677e+06  167285  91641.4
   12872.4  1.35823e+06  167891  92212.8
   12878.6  1.3636e+06  169002  93111.6
   12885.1  1.37022e+06  170282  94106