File: data/As/as2s3_100K_scan2.xdi
# XDI/1.0
# Column.1: energy eV
# Column.2: i0
# Column.3: itrans
# Column.4: irefer
# Beamline.name: SSRL 2-3
# Beamline.notes: vert slits = 0.6mm
# Detector.I0: N2 15cm
# Detector.I1: Ar 30cm
# Detector.I2: Ar 15cm
# Element.edge: K
# Element.symbol: As
# Mono.d_spacing: 3.13550
# Mono.name: Si(111)
# Mono.notes: unfocused, detuned 75%, clockwise at E=12000eV
# Sample.formula: As2S3
# Sample.name: As2S3 arsenious sulfide (orpiment)
# Sample.prep: powder on tape (5 layers)
# Sample.reference: GaAs powder
# Sample.temperature: 100K
# Scan.start_time: 1997-04-19 22:41:20
# ///
#    Note: mono d_spacing is nominal!
#     exafs to K16, GaAs in IR
#     413  E XMU XMUR I0
#-------------
#   energy   i0   itrans  irefer
   11634.9  518893  92592.5  37762
   11644.9  516160  92448.5  37917
   11654.9  513109  92241.5  38067
   11665  510418  92100.5  38239
   11675.1  508326  92055.5  38437
   11684.9  505894  91948.5  38613
   11695  502367  91630.5  38708
   11705.1  499557  91457.5  38861
   11714.9  497389  91394.5  39063
   11725.1  494468  91206.5  39210
   11735  492279  91136.5  39392
   11744.9  490253  91063.5  39599
   11755.1  486941  90777.5  39700
   11765  484322  90601.5  39861
   11775  482332  90533.5  40053
   11784.9  479748  90364.5  40196
   11794.9  477434  90216.5  40356
   11804.9  474992  90034.5  40495
   11814.9  471925  89701.5  40549
   11824.9  469708  89526.5  40680
   11835  467263  89157.5  40692
   11845.1  465351  88643.5  40578
   11845.4  464800  88516.5  40518
   11846  463966  88359.5  40448
   11846.6  464593  88421.5  40475
   11846.9  464516  88409.5  40480
   11847.5  464289  88328.5  40436
   11848.1  463786  88203.5  40379
   11848.4  463655  88152.5  40358
   11849  463659  88101.5  40323
   11849.6  462931  87906.5  40243
   11849.9  462440  87789.5  40180
   11850.6  461949  87669.5  40127
   11850.9  462694  87765.5  40163
   11851.5  462317  87619.5  40081
   11852.1  462124  87500.5  40015
   11852.4  462459  87529.5  40029
   11853  463131  87553.5  40014
   11853.6  462791  87392.5  39958
   11853.9  462457  87263.5  39871
   11854.5  462412  87103.5  39778
   11855.1  462577  86985.5  39692
   11855.4  462635  86920.5  39649
   11856.1  462258  86651.5  39489
   11856.4  462252  86546.5  39421
   11857  462473  86321.5  39284
   11857.6  462029  85958.5  39066
   11857.9  461641  85773.5  38956
   11858.5  462094  85460.5  38732
   11859.1  461677  84936.5  38414
   11859.4  461439  84647.5  38239
   11860  460876  83927.5  37786
   11860.6  461201  83220.5  37315
   11861  461130  82853.5  37084
   11861.6  460846  81700.5  36353
   11861.9  460421  80998.5  35917
   11862.5  460397  79308.5  34829
   11863.1  460178  77069.5  33427
   11863.4  459668  75851.5  32671
   11864  459180  72106.5  30404
   11864.6  459394  67153.5  27532
   11864.9  459329  64175.5  25867
   11865.5  459270  56996.5  22070
   11865.9  458965  53528.5  20328
   11866.5  459427  44798.5  16118
   11867.1  459707  36160.5  12163
   11867.4  459423  32633.5  10600
   11868  459161  27149.5  8182
   11868.6  459460  24575.5  6922
   11868.9  459427  24394.5  6740
   11869.5  459283  25923.5  6953
   11870.1  458963  29412.5  7852
   11870.5  458729  31573.5  8453
   11871.1  458749  36366.5  9806.99
   11871.4  458447  38139.5  10324
   11872  457510  42199.5  11539
   11872.6  457134  45120.5  12471
   11872.9  457644  46142.5  12814
   11873.5  457446  47286.5  13273
   11874.1  457257  47425.5  13475
   11874.4  457645  47336.5  13528
   11875.1  457813  46780.5  13589
   11875.4  457746  46465.5  13607
   11876  457625  45890.5  13680
   11876.6  457350  45549.5  13803
   11876.9  457819  45544.5  13890
   11877.5  457573  45534.5  14076
   11878.1  456885  45658.5  14263
   11878.4  457068  45809.5  14362
   11879  457137  46100.5  14557
   11879.4  457045  46216.5  14623
   11880  456427  46427.5  14764
   11880.6  456263  46660.5  14899
   11880.9  456762  46825.5  14964
   11881.5  455926  46958.5  15045
   11882.1  456047  47161.5  15128
   11882.4  456256  47249.5  15160
   11883  456068  47430.5  15210
   11883.7  455774  47559.5  15245
   11884  455174  47571.5  15242
   11884.6  454542  47642.5  15266
   11884.9  455050  47746.5  15299
   11885.5  454623  47845.5  15346
   11886.1  454169  47911.5  15382
   11886.4  454700  48030.5  15429
   11887  455154  48202.5  15493
   11887.6  454941  48333.5  15547
   11888  454580  48358.5  15552
   11888.6  455112  48569.5  15615
   11888.9  455292  48670.5  15651
   11889.5  454655  48790.5  15679
   11890.1  454117  48908.5  15702
   11890.4  454125  48985.5  15732
   11891  454576  49217.5  15795
   11891.6  454320  49377.5  15842
   11892  453776  49419.5  15859
   11892.6  453871  49614.5  15932
   11892.9  454079  49721.5  15979
   11893.5  453716  49867.5  16067
   11894.1  453261  50010.5  16159
   11894.4  453483  50120.5  16209
   11895  453705  50314.5  16334
   11895.6  453392  50469.2  16445.8
   11896.3  452967  50585.5  16527
   11896.9  453034  50770.3  16625.8
   11897.5  453341  50957.6  16700.2
   11898.4  453328  51174.4  16763
   11899  453228  51280.6  16784.4
   11899.7  453234  51394.5  16792.2
   11900.6  453584  51585.7  16838.6
   11901.2  453200  51620.6  16827.5
   11902.1  453736  51768.9  16872
   11903  454309  51884.7  16915.9
   11903.7  454740  51953.1  16952.4
   11904.6  454829  51957.9  16975.4
   11905.5  454897  51928.2  16983.9
   11906.4  455294  51918.1  17009.9
   11907.4  456214  51934.5  17028.5
   11908.3  456835  51886.4  17022.6
   11909.2  456812  51726.7  16977.1
   11910.1  457483  51617.6  16938.3
   11911.1  458244  51497.1  16895.9
   11912.3  459051  51277  16789
   11913.2  458934  51027.4  16692.7
   11914.2  459648  50852.3  16624.9
   11915.4  461121  50661.8  16567.6
   11916.3  462033  50524.7  16540.8
   11917.6  461597  50168.1  16489.6
   11918.8  462724  50023.1  16519.8
   11919.7  464001  49966.6  16565.6
   11921  465123  49882.5  16603.9
   11922.2  466006  49792  16612.8
   11923.4  466245  49693  16611.1
   11924.7  467524  49732.5  16645.9
   11925.9  469050  49843.5  16698.3
   11927.1  469783  49914  16725.2
   11928.4  470559  50011  16749.6
   11929.6  471646  50160.5  16788.6
   11930.9  473263  50389.5  16840
   11932.4  474845  50679.1  16883
   11933.7  476099  50953.1  16935.5
   11934.9  477133  51249.7  16978.5
   11936.4  478433  51636.8  17056.1
   11938  479861  52063.4  17171.1
   11939.2  481279  52440.4  17291.7
   11940.8  481580  52794  17433.8
   11942.3  482210  53167.1  17596.4
   11943.6  483309  53537.7  17750.5
   11945.1  486970  54272.8  18032.2
   11946.7  489587  54847.4  18250.4
   11948.2  491115  55279.6  18425.1
   11949.8  493049  55737.2  18616.3
   11951.3  493859  56030.3  18735
   11952.9  495937  56424  18910.3
   11954.8  496804  56642.1  19030
   11956.3  499404  57027.8  19207.3
   11957.9  501990  57358  19359.1
   11959.7  502794  57464.6  19409.4
   11961.3  504636  57645.8  19472.3
   11963.2  505807  57736.5  19483.7
   11964.7  509079  58033.7  19590.6
   11966.6  511533  58220.5  19676.9
   11968.5  513355  58336.7  19775.9
   11970  515007  58424.4  19897.3
   11971.9  517272  58561.6  20067.3
   11973.8  519015  58632.4  20203.8
   11975.6  520707  58692.6  20310.8
   11977.5  523348  58849.4  20418.3
   11979.4  525748  58998.6  20497.3
   11981.3  527832  59111.4  20553.9
   11983.1  529644  59199.7  20595
   11985  530865  59223.5  20589.6
   11987.2  532157  59252.8  20561.7
   11989.1  535870  59604.6  20624.3
   11991.3  539151  59916.9  20663.5
   11993.2  542394  60250.7  20705.2
   11995.3  544085  60464.1  20704.4
   11997.2  546236  60756.9  20746.1
   11999.4  549171  61188.2  20861.3
   12001.3  551311  61554.1  21004.1
   12003.5  553684  62025.5  21205.4
   12005.7  556684  62599.3  21452.1
   12007.9  558393  63050.7  21656.5
   12010.1  560236  63561.6  21891.3
   12012.3  562366  64087.9  22133.6
   12014.5  566096  64835.9  22466.5
   12016.7  570471  65629.3  22796.9
   12018.9  573546  66248.2  23077.8
   12021.1  575557  66719.6  23313.2
   12023.6  579180  67374.5  23629.2
   12025.8  580874  67723.9  23817.6
   12028  584049  68177.9  24047.7
   12030.5  586447  68542.4  24242.2
   12032.7  590198  69043.3  24470.2
   12035.3  593566  69442.8  24671.7
   12037.8  595771  69717.7  24831.8
   12040  598767  70076.2  25015.4
   12042.5  602860  70528.3  25231.5
   12045  605442  70782.7  25375.1
   12047.6  608229  71058.8  25533.3
   12050.1  610481  71283.2  25664.9
   12052.6  612906  71520.2  25752.1
   12055.2  615213  71734.8  25803.8
   12057.7  617950  72016.8  25876
   12060.2  623095  72590.4  26073.8
   12062.8  626990  73010.4  26262
   12065.3  630209  73373  26442.8
   12068.1  633749  73776  26637.1
   12070.7  637151  74183.6  26804.9
   12073.2  640922  74661.7  26961.3
   12076.1  642858  74950.3  27020.1
   12078.6  647075  75507.4  27195.5
   12081.5  648802  75818  27268.4
   12084.3  653380  76482.1  27501.8
   12086.9  655911  76919.7  27666.7
   12089.7  661273  77698.9  27977.2
   12092.6  663794  78186.5  28244.2
   12095.5  667192  78778.7  28553.7
   12098.3  670588  79401.3  28883.7
   12101.2  673779  79997.4  29208.2
   12104.1  677668  80688.2  29551.3
   12107  681292  81336.3  29869.8
   12109.8  684459  81928  30194.9
   12112.7  685880  82320.2  30441.5
   12115.9  692769  83369.9  30972.7
   12118.8  695285  83860.1  31253.3
   12121.6  699460  84544.8  31629.5
   12124.9  702460  85084  31946.1
   12127.7  706319  85675.8  32241.4
   12130.9  709861  86224  32518.1
   12133.8  714344  86881.8  32808.3
   12137  716466  87223  32970.1
   12140.2  721951  87975.8  33238.4
   12143.4  724728  88354.1  33370.2
   12146.3  729183  88913.8  33585.5
   12149.6  732180  89332.1  33752.3
   12152.8  736055  89831.9  33952.7
   12156  740206  90361.2  34173.6
   12159.2  744018  90840  34388
   12162.4  747650  91328.3  34612.9
   12165.6  750546  91741.1  34822.4
   12169.2  755330  92406.5  35140.3
   12172.4  758966  92888.4  35396.8
   12175.6  764058  93644.7  35765.8
   12178.9  767868  94216.6  36037.3
   12182.4  771712  94821.9  36326.3
   12185.7  775520  95450.8  36605.9
   12189.2  778707  96027.1  36898
   12192.5  783156  96754  37263.6
   12196  786810  97434.5  37619.7
   12199.6  789733  98006.3  37938.3
   12202.8  794942  98862.7  38352.5
   12206.4  798384  99517.6  38701.1
   12210  802670  100285  39116.3
   12213.5  807586  101133  39562.1
   12217.1  810690  101744  39939.3
   12220.7  814631  102480  40356
   12224.3  818890  103242  40804.3
   12227.8  823084  103993  41225.1
   12231.4  827100  104678  41612.4
   12235  830705  105347  41955.2
   12238.9  835431  106146  42389.6
   12242.5  839803  106893  42781.4
   12246.1  842102  107373  43028.8
   12250  847138  108185  43409.7
   12253.6  851310  108876  43702.2
   12257.5  852884  109252  43869.1
   12261.2  859418  110224  44294.6
   12265.1  863291  110878  44618.6
   12269  864963  111238  44847
   12272.6  872047  112275  45319.1
   12276.6  876737  113020  45688.6
   12280.5  879395  113493  45959.7
   12284.4  883276  114143  46321.3
   12288.4  889425  115083  46797.4
   12292.3  893615  115781  47223
   12296.3  896883  116373  47583.1
   12300.2  901418  117157  48025.8
   12304.2  905335  117865  48448.9
   12308.2  908047  118402  48785.6
   12312.1  913898  119366  49305.9
   12316.1  917525  120041  49707.6
   12320.4  921781  120847  50172.9
   12324.3  923592  121336  50511.7
   12328.7  929074  122345  51079.9
   12332.6  933738  123198  51573.7
   12336.6  936864  123862  51982.1
   12340.9  942482  124860  52548.9
   12345.2  946586  125712  53042.3
   12349.2  950842  126534  53490.2
   12353.5  954526  127318  53948.6
   12357.9  958625  128133  54403.6
   12362.2  961718  128820  54819
   12366.2  966306  129689  55312.9
   12370.5  971012  130580  55834.4
   12374.9  975567  131464  56336.4
   12379.2  979646  132251  56774
   12383.5  982711  132900  57158
   12387.9  986724  133679  57599.6
   12392.6  989323  134280  57970.7
   12396.9  995944  135396  58561.3
   12401.3  1.00057e+06  136263  59055.4
   12405.6  1.00359e+06  136880  59437.1
   12410.3  1.00837e+06  137771  59945.2
   12414.7  1.01243e+06  138535  60412.9
   12419  1.01652e+06  139317  60882.1
   12423.8  1.02124e+06  140204  61441.8
   12428.1  1.02394e+06  140792  61833.1
   12432.8  1.02784e+06  141588  62347.8
   12437.6  1.03219e+06  142448  62919.1
   12441.9  1.03693e+06  143373  63485.9
   12446.7  1.04164e+06  144300  64084.2
   12451.4  1.04549e+06  145115  64634.1
   12456.1  1.04778e+06  145746  65114.4
   12460.5  1.05289e+06  146739  65710.3
   12465.3  1.05525e+06  147349  66153.7
   12470  1.06266e+06  148716  66952.6
   12474.7  1.06666e+06  149567  67531
   12479.5  1.06818e+06  150137  67957
   12484.2  1.07378e+06  151232  68623.5
   12489  1.07777e+06  152140  69196.5
   12494.1  1.08101e+06  152937  69722
   12498.9  1.08398e+06  153654  70194
   12503.6  1.0874e+06  154475  70717.5
   12508.4  1.0919e+06  155472  71350.6
   12513.5  1.09376e+06  156094  71803.2
   12518.3  1.09876e+06  157101  72427.4
   12523.4  1.10437e+06  158234  73135
   12528.2  1.10554e+06  158735  73532.1
   12533.4  1.10925e+06  159590  74107.8
   12538.1  1.11596e+06  160868  74874
   12543.3  1.11851e+06  161575  75391.7
   12548.1  1.12361e+06  162591  76035.9
   12553.2  1.12684e+06  163395  76606.6
   12558.4  1.12793e+06  163878  77015.9
   12563.6  1.13146e+06  164723  77611.7
   12568.7  1.13527e+06  165593  78236
   12573.5  1.14063e+06  166659  78926.8
   12578.7  1.14489e+06  167638  79595.2
   12583.9  1.14648e+06  168195  80088
   12589.1  1.15107e+06  169213  80789.4
   12594.2  1.15569e+06  170218  81492.3
   12599.4  1.15837e+06  170983  82105.7
   12605  1.16135e+06  171795  82727.7
   12610.2  1.16479e+06  172656  83379.2
   12615.4  1.16747e+06  173380  83982.1
   12620.6  1.17304e+06  174623  84794.6
   12625.8  1.17634e+06  175479  85444.7
   12631.3  1.17941e+06  176293  86067.1
   12636.6  1.18371e+06  177337  86821.2
   12642.1  1.18568e+06  178018  87372.8
   12647.4  1.18938e+06  179018  88092.8
   12652.9  1.19131e+06  179707  88654.5
   12658.2  1.19446e+06  180566  89297.7
   12663.8  1.19917e+06  181693  90089.3
   12669  1.20321e+06  182690  90802.4
   12674.6  1.20341e+06  183125  91273.1
   12680.2  1.20761e+06  184186  92041.4
   12685.8  1.20941e+06  184849  92606
   12691.1  1.21617e+06  186270  93550.3
   12696.7  1.21851e+06  187039  94191.1
   12702.3  1.21984e+06  187655  94756.4
   12708  1.2221e+06  188410  95384.2
   12713.6  1.22769e+06  189633  96281.5
   12719.3  1.23039e+06  190478  96986.4
   12724.9  1.23449e+06  191512  97768.7
   12730.6  1.23883e+06  192591  98577.6
   12736.2  1.24002e+06  193186  99161.1
   12741.9  1.24468e+06  194298  100034
   12747.9  1.24659e+06  195053  100704
   12753.6  1.25015e+06  195990  101456
   12759.2  1.25468e+06  197150  102340
   12764.9  1.25672e+06  197864  103008
   12771  1.25868e+06  198626  103699
   12776.7  1.26334e+06  199772  104581
   12782.4  1.26688e+06  200768  105405
   12788.4  1.26881e+06  201540  106133
   12794.1  1.27094e+06  202304  106819
   12800.2  1.27453e+06  203368  107659
   12806.3  1.2765e+06  204117  108397
   12812  1.27654e+06  204575  108947
   12818.1  1.28009e+06  205621  109794
   12824.2  1.28016e+06  206138  110391
   12829.9  1.28639e+06  207581  111442
   12836  1.28669e+06  208105  112027
   12842.1  1.29164e+06  209398  113017
   12848.2  1.29522e+06  210437  113897
   12854.4  1.29602e+06  211058  114526
   12860.5  1.30006e+06  212255  115491
   12866.3  1.29947e+06  212599  116012
   12872.4  1.3025e+06  213588  116886
   12878.6  1.30501e+06  214514  117703
   12885.1  1.31026e+06  215860  118806