File: data/As/ass_100K_scan2.xdi
# XDI/1.0
# Column.1: energy eV
# Column.2: i0
# Column.3: itrans
# Column.4: irefer
# Beamline.name: SSRL 2-3
# Beamline.notes: vert slits = 0.6mm
# Detector.I0: N2 15cm
# Detector.I1: Ar 30cm
# Detector.I2: Ar 15cm
# Element.edge: K
# Element.symbol: As
# Mono.d_spacing: 3.13550
# Mono.name: Si(111)
# Mono.notes: unfocused, detuned 75%, clockwise at E=12000eV
# Sample.formula: AsS
# Sample.name: AsS (realgar)
# Sample.prep: powder on tape (5 layers)
# Sample.reference: GaAs powder
# Sample.temperature: 100K
# Scan.start_time: 1997-04-20 00:46:37
# ///
#    Note: mono d_spacing is nominal!
#     exafs to K16, GaAs in IR
#     413  E XMU XMUR I0
#-------------
#   energy   i0   itrans  irefer
   11634.9  504067  72392.5  29517
   11644.9  501947  72380.5  29689
   11654.9  499058  72276.5  29821
   11665  496615  72217.5  29982
   11675.1  494389  72209.5  30155
   11684.9  492072  72165.5  30302
   11695  488449  71947.5  30391
   11705.1  486168  71882.5  30543
   11714.9  484108  71872.5  30721
   11725.1  481986  71858.5  30895
   11735  479371  71757.5  31031
   11744.9  477243  71717.5  31188
   11755.1  473894  71504.5  31269
   11765  471647  71443.5  31426
   11775  469431  71378.5  31577
   11784.9  467326  71325.5  31729
   11794.9  465216  71247.5  31865
   11804.9  462406  71029.5  31934
   11814.9  459604  70800.5  32004
   11824.9  457366  70568.5  32061
   11835  455664  70296.5  32093
   11845.1  453145  69471.5  31791
   11845.4  452315  69319.5  31725
   11846  452262  69274.5  31705
   11846.6  452796  69296.5  31711
   11846.9  452725  69257.5  31700
   11847.5  451930  69060.5  31604
   11848.1  451579  68936.5  31547
   11848.4  451601  68910.5  31532
   11849  451415  68805.5  31491
   11849.6  450623  68592.5  31384
   11849.9  450898  68581.5  31377
   11850.6  451283  68537.5  31343
   11850.9  451345  68485.5  31333
   11851.5  450845  68287.5  31224
   11852.1  450855  68150.5  31141
   11852.4  451125  68117.5  31131
   11853  451531  68017.5  31073
   11853.6  451186  67781.5  30953
   11853.9  450766  67603.5  30868
   11854.5  451279  67443.5  30770
   11855.1  450747  67103.5  30600
   11855.4  450248  66914.5  30494
   11856.1  450140  66573.5  30309
   11856.4  450381  66418.5  30218
   11857  450121  65986.5  29977
   11857.6  449812  65451.5  29695
   11857.9  449711  65202.5  29548
   11858.5  449680  64584.5  29216
   11859.1  449793  63853.5  28809
   11859.4  449548  63404.5  28561
   11860  449606  62383.5  28002
   11860.6  449723  61146.5  27314
   11861  449428  60497.5  26957
   11861.6  448706  58650.5  25953
   11861.9  448796  57578.5  25371
   11862.5  448688  54931.5  23942
   11863.1  448452  51495.5  22121
   11863.4  448004  49575.5  21127
   11864  447794  44502.5  18558
   11864.6  447904  38130.5  15442
   11864.9  447730  34741.5  13835
   11865.5  447666  27589.5  10574
   11865.9  447331  24462.5  9194
   11866.5  447946  18104.5  6454
   11867.1  448029  12881.5  4275
   11867.4  447497  11024.5  3508
   11868  447361  8987.5  2624
   11868.6  447328  8875.5  2432
   11868.9  447521  9308.5  2514
   11869.5  446993  11122.5  2976
   11870.1  447503  13752.5  3694
   11870.5  447137  15193.5  4095
   11871.1  446610  17975.5  4889
   11871.4  446014  18984.5  5182
   11872  445858  21098.5  5818
   11872.6  446073  22381.5  6230
   11872.9  446291  22739.5  6356
   11873.5  446170  22900.5  6481
   11874.1  445911  22579.5  6473
   11874.4  446170  22390.5  6460
   11875.1  446671  21936.5  6440
   11875.4  445925  21710.5  6426
   11876  445837  21468.5  6472
   11876.6  446090  21455.5  6570
   11876.9  446349  21510.5  6622
   11877.5  445700  21650.5  6736
   11878.1  445569  21885.5  6865.99
   11878.4  445890  22027.5  6932
   11879  445845  22247.5  7036
   11879.4  445153  22306.5  7074
   11880  445014  22486.5  7162
   11880.6  445071  22649.5  7235
   11880.9  445237  22729.5  7267
   11881.5  444214  22819.5  7302
   11882.1  443832  22935.5  7342
   11882.4  444078  23001.5  7358.01
   11883  444402  23139.5  7399
   11883.7  443573  23204.5  7421
   11884  442915  23236.5  7430.01
   11884.6  443266  23355.5  7471
   11884.9  443078  23390.5  7488
   11885.5  442627  23464.5  7516
   11886.1  443037  23595.5  7561
   11886.4  442923  23639.5  7584
   11887  443010  23755.5  7629
   11887.6  443037  23880.5  7663
   11888  442900  23929.5  7681
   11888.6  443251  24077.5  7725
   11888.9  443205  24140.5  7747
   11889.5  442492  24243.5  7772
   11890.1  442876  24411.5  7823
   11890.4  442879  24476.5  7838
   11891  442921  24620.5  7883
   11891.6  442423  24741.5  7926
   11892  442283  24810.5  7949
   11892.6  442478  24969.5  8012
   11892.9  442223  25018.5  8031.01
   11893.5  441663  25130.5  8089.99
   11894.1  441571  25263.5  8160
   11894.4  442186  25369.5  8215
   11895  442048  25490.5  8281
   11895.6  441490  25587.3  8341.76
   11896.3  441507  25702.5  8393.04
   11896.9  441632  25831.3  8450.83
   11897.5  441877  25958.6  8494.16
   11898.4  441419  26065.4  8517
   11899  441175  26134.6  8527.35
   11899.7  441730  26238.4  8552.23
   11900.6  442188  26352.8  8578.63
   11901.2  441957  26371.6  8583.54
   11902.1  442248  26434.9  8602.97
   11903  442645  26478.7  8621.92
   11903.7  443132  26508.1  8640.4
   11904.6  443366  26508.9  8655.39
   11905.5  443415  26474.3  8653.9
   11906.4  443809  26447.1  8654.93
   11907.4  443947  26391.5  8640.49
   11908.3  444463  26328.4  8628.55
   11909.2  444714  26228.8  8598.14
   11910.1  445640  26155.7  8570.25
   11911.1  446396  26047  8525.88
   11912.3  446895  25851  8444.03
   11913.2  447096  25689.4  8385.7
   11914.2  448015  25551.3  8338.89
   11915.4  448963  25347.7  8280.59
   11916.3  449869  25214.7  8254.81
   11917.6  450196  24996.1  8219.57
   11918.8  450217  24783.1  8190.82
   11919.7  451829  24728.5  8199.61
   11921  452937  24622.5  8192.91
   11922.2  453824  24524  8178.73
   11923.4  454063  24422  8157.08
   11924.7  455334  24399.5  8148.94
   11925.9  456341  24400.5  8160.32
   11927.1  457278  24416  8167.22
   11928.4  458420  24460  8186.64
   11929.6  459370  24521.5  8182.59
   11930.9  461026  24629.6  8212.05
   11932.4  462143  24778.1  8234.02
   11933.7  463602  24967.2  8272.52
   11934.9  464681  25157.7  8311.54
   11936.4  465193  25385.8  8366.07
   11938  467185  25710.3  8463.13
   11939.2  468160  25945.4  8543.71
   11940.8  468365  26221  8649.8
   11942.3  469209  26519.1  8768.42
   11943.6  471650  26860.7  8896.54
   11945.1  474465  27281.8  9051.2
   11946.7  476850  27648.4  9191.37
   11948.2  477831  27919.5  9300.06
   11949.8  479362  28198.2  9409.28
   11951.3  481016  28444.3  9505.01
   11952.9  482497  28651  9591.26
   11954.8  484988  28892.1  9701.03
   11956.3  486407  29020.8  9766.32
   11957.9  488154  29138  9827.12
   11959.7  490029  29247.7  9863.46
   11961.3  491291  29280.8  9876.29
   11963.2  493354  29349.5  9890.66
   11964.7  495501  29418.7  9914.54
   11966.6  497568  29450.4  9937.95
   11968.5  499148  29453.7  9979.89
   11970  500828  29461.4  10034.3
   11971.9  503028  29486.6  10109.3
   11973.8  505062  29497.4  10166.8
   11975.6  507664  29540.6  10211.8
   11977.5  509267  29524.4  10227.3
   11979.4  511856  29567.7  10262.3
   11981.3  513833  29582.4  10271.9
   11983.1  515243  29567.7  10268
   11985  516007  29509.5  10243.6
   11987.2  518337  29558.8  10229.7
   11989.1  522528  29718.6  10258.3
   11991.3  525519  29827.9  10258.5
   11993.2  527694  29931.7  10259.2
   11995.3  528589  29974.1  10232.4
   11997.2  531832  30179.9  10281.1
   11999.4  534104  30382.2  10341.3
   12001.3  536283  30601.1  10428.1
   12003.5  539240  30903.4  10554.4
   12005.7  541919  31240.3  10695.2
   12007.9  543179  31513.7  10816.5
   12010.1  545372  31869.6  10964.3
   12012.3  547793  32260  11129.6
   12014.5  551701  32741.8  11337.5
   12016.7  555498  33203.2  11526.9
   12018.9  558183  33585.2  11684.8
   12021.1  559936  33889.6  11829.2
   12023.6  563870  34302.5  12021.2
   12025.8  566321  34571  12144.7
   12028  569049  34800.9  12260.7
   12030.5  571786  35032.3  12376.2
   12032.7  573820  35191.3  12466.2
   12035.3  576806  35371.8  12555.7
   12037.8  579768  35544.7  12648.8
   12040  582227  35677.2  12718.4
   12042.5  584547  35764.2  12774.5
   12045  587226  35865.7  12835.1
   12047.6  591256  36031.7  12932.3
   12050.1  593686  36116.2  12974.9
   12052.6  596207  36206.3  13012.1
   12055.2  597527  36226.8  13003.8
   12057.7  600557  36350.8  13033
   12060.2  606771  36678.4  13147.8
   12062.8  609716  36824.4  13216
   12065.3  612918  37003  13312.8
   12068.1  616639  37213.1  13412.1
   12070.7  619795  37412.6  13487.9
   12073.2  622406  37589.7  13547.3
   12076.1  625896  37849.3  13625.1
   12078.6  628523  38075.4  13686.5
   12081.5  632376  38393  13789.4
   12084.3  635193  38675.1  13882.8
   12086.9  639748  39052.8  14023.7
   12089.7  642550  39341.9  14153.2
   12092.6  646288  39710.5  14323.2
   12095.5  648654  39985.7  14474.7
   12098.3  652750  40380.3  14671.7
   12101.2  653854  40604.5  14812.2
   12104.1  659227  41094.1  15032.2
   12107  661166  41369.3  15178.8
   12109.8  665424  41790  15387.9
   12112.7  667905  42090.2  15548.5
   12115.9  673439  42593.9  15805.6
   12118.8  676210  42897.1  15975.3
   12121.6  680535  43293.8  16181.5
   12124.9  683263  43580.1  16343.2
   12127.7  687007  43914.8  16507.4
   12130.9  690657  44236  16662.1
   12133.8  693965  44511.7  16790.3
   12137  696640  44749  16889.1
   12140.2  701747  45123.8  17031.4
   12143.4  705117  45383  17118.2
   12146.3  708336  45599.8  17200.5
   12149.6  711409  45810.1  17280.4
   12152.8  715633  46091.9  17392.7
   12156  717809  46226.2  17452.6
   12159.2  722339  46526  17587
   12162.4  725860  46771.3  17695.9
   12165.6  728723  46978.2  17808.4
   12169.2  733644  47331.5  17978.3
   12172.4  737718  47636.3  18122.8
   12175.6  742013  47979.6  18295.8
   12178.9  744965  48232.5  18427.3
   12182.4  749324  48623.9  18591.4
   12185.7  753165  48975.7  18750.9
   12189.2  755761  49284.1  18911
   12192.5  761167  49757  19136.6
   12196  764347  50137.4  19335.7
   12199.6  768548  50565.3  19556.3
   12202.8  772151  50954.7  19739.5
   12206.4  776058  51378.6  19959.1
   12210  780737  51858  20192.3
   12213.5  784969  52297  20436.1
   12217.1  787981  52655.4  20640.3
   12220.7  792693  53123.4  20899
   12224.3  796114  53505.9  21118.3
   12227.8  799999  53892.8  21339.1
   12231.4  804380  54321.3  21552.4
   12235  808153  54720.2  21759.2
   12238.9  812303  55127.8  21977.6
   12242.5  814089  55359.7  22123.4
   12246.1  819949  55870.2  22350.8
   12250  824352  56295.2  22543.7
   12253.6  827997  56652.8  22689.2
   12257.5  832045  57035.8  22862.1
   12261.2  836264  57436.3  23036.6
   12265.1  838217  57681.4  23179.6
   12269  843450  58144.9  23398.1
   12272.6  848737  58605  23608.1
   12276.6  851730  58912.5  23785.6
   12280.5  855747  59303.6  23971.7
   12284.4  860812  59750.2  24193.3
   12288.4  865169  60160.3  24427.4
   12292.3  869075  60537.9  24647
   12296.3  872318  60859  24837.1
   12300.2  876644  61272.6  25066.8
   12304.2  881280  61699.7  25321
   12308.2  884858  62095.3  25540.6
   12312.1  890045  62566.5  25793.9
   12316.1  894868  63045.1  26064.6
   12320.4  897824  63415.3  26291.9
   12324.3  901228  63797.9  26513.6
   12328.7  905842  64299.1  26799.9
   12332.6  909964  64766.8  27053.8
   12336.6  913270  65178.9  27296.1
   12340.9  917430  65674.6  27600.9
   12345.2  920771  66106.8  27845.3
   12349.2  926119  66689.5  28147.2
   12353.5  931031  67249.7  28441.6
   12357.9  933772  67652.4  28681.5
   12362.2  937518  68135.6  28940
   12366.2  941792  68620.4  29215
   12370.5  945832  69135.7  29499.4
   12374.9  950170  69622.4  29780.4
   12379.2  953692  70061.7  30023
   12383.5  958466  70595.4  30305
   12387.9  961397  70977.7  30529.6
   12392.6  966724  71525.5  30821.7
   12396.9  971199  72019.7  31092.3
   12401.3  974436  72403.5  31315.4
   12405.6  979716  72949.8  31608
   12410.3  983597  73400.7  31869.2
   12414.7  988248  73904  32143.9
   12419  991691  74299.8  32401.1
   12423.8  994640  74699.2  32657.8
   12428.1  999294  75201  32949.1
   12432.8  1.00301e+06  75663.3  33231.8
   12437.6  1.0068e+06  76120.2  33537.1
   12441.9  1.01094e+06  76626.5  33855.9
   12446.7  1.01485e+06  77104.5  34169.2
   12451.4  1.01761e+06  77501.8  34443
   12456.1  1.02091e+06  77957.7  34740.4
   12460.5  1.02489e+06  78457.2  35053.3
   12465.3  1.02817e+06  78915  35347.7
   12470  1.03412e+06  79576.5  35749.6
   12474.7  1.03831e+06  80120.3  36095
   12479.5  1.03982e+06  80461.8  36336
   12484.2  1.04609e+06  81159.8  36743.5
   12489  1.04816e+06  81544.1  36996.4
   12494.1  1.05339e+06  82191.1  37394.9
   12498.9  1.05638e+06  82651.6  37682
   12503.6  1.0591e+06  83089.6  37963.6
   12508.4  1.06287e+06  83625  38301.6
   12513.5  1.06478e+06  84022  38569.2
   12518.3  1.07121e+06  84747.5  39005.3
   12523.4  1.0736e+06  85203.5  39295.9
   12528.2  1.07761e+06  85755  39639.1
   12533.4  1.08081e+06  86249  39967.8
   12538.1  1.08386e+06  86722.6  40275
   12543.3  1.08873e+06  87341.5  40677.7
   12548.1  1.09189e+06  87824.1  40985.9
   12553.2  1.09571e+06  88375.1  41333.6
   12558.4  1.0985e+06  88828.7  41653.9
   12563.6  1.10353e+06  89466.7  42055.7
   12568.7  1.10693e+06  89943.4  42411
   12573.5  1.11047e+06  90453.4  42756.8
   12578.7  1.11295e+06  90869  43073.2
   12583.9  1.11758e+06  91485.1  43465
   12589.1  1.12092e+06  91980.7  43827.4
   12594.2  1.12478e+06  92498.8  44200.3
   12599.4  1.12811e+06  93024.4  44579.7
   12605  1.1307e+06  93476.5  44927.6
   12610.2  1.13503e+06  94074.1  45353.1
   12615.4  1.13752e+06  94545.3  45709.1
   12620.6  1.14341e+06  95289.9  46178.6
   12625.8  1.14706e+06  95870.1  46580.6
   12631.3  1.14974e+06  96382.7  46964.1
   12636.6  1.15367e+06  96984.9  47368.2
   12642.1  1.15657e+06  97530.6  47758.8
   12647.4  1.16027e+06  98126.8  48180.9
   12652.9  1.16189e+06  98560.5  48530.5
   12658.2  1.16509e+06  99098.7  48904.6
   12663.8  1.16816e+06  99632.3  49295.3
   12669  1.17253e+06  100289  49742.5
   12674.6  1.17505e+06  100794  50130.2
   12680.2  1.17818e+06  101368  50539.3
   12685.8  1.1816e+06  101965  50978.1
   12691.1  1.18519e+06  102551  51378.4
   12696.7  1.18925e+06  103169  51832.1
   12702.3  1.19244e+06  103729  52278.4
   12708  1.19464e+06  104216  52669.2
   12713.6  1.19593e+06  104597  52997.5
   12719.3  1.20169e+06  105373  53532.4
   12724.9  1.20297e+06  105771  53868.8
   12730.6  1.20554e+06  106285  54285.6
   12736.2  1.20839e+06  106815  54714
   12741.9  1.21063e+06  107285  55111
   12747.9  1.21661e+06  108088  55700.4
   12753.6  1.21753e+06  108456  56053.4
   12759.2  1.22114e+06  109082  56534.9
   12764.9  1.22403e+06  109628  56978.9
   12771  1.22827e+06  110327  57510.4
   12776.7  1.22856e+06  110637  57833.4
   12782.4  1.23327e+06  111385  58374
   12788.4  1.23549e+06  111907  58819.1
   12794.1  1.23855e+06  112515  59300.7
   12800.2  1.24237e+06  113186  59810.8
   12806.3  1.24359e+06  113628  60216.4
   12812  1.24818e+06  114370  60761.6
   12818.1  1.25087e+06  114959  61247.3
   12824.2  1.252e+06  115401  61653.5
   12829.9  1.25417e+06  115936  62095.2
   12836  1.25825e+06  116676  62654.4
   12842.1  1.25833e+06  117005  63016.2
   12848.2  1.26259e+06  117753  63586.5
   12854.4  1.26157e+06  118029  63910.2
   12860.5  1.26585e+06  118758  64494.5
   12866.3  1.2687e+06  119359  64979.4
   12872.4  1.27181e+06  119992  65505.7
   12878.6  1.27364e+06  120528  66002.6
   12885.1  1.27409e+06  120926  66410