File: data/As/ass_100K_scan1.xdi
# XDI/1.0
# Column.1: energy eV
# Column.2: i0
# Column.3: itrans
# Column.4: irefer
# Beamline.name: SSRL 2-3
# Beamline.notes: vert slits = 0.6mm
# Detector.I0: N2 15cm
# Detector.I1: Ar 30cm
# Detector.I2: Ar 15cm
# Element.edge: K
# Element.symbol: As
# Mono.d_spacing: 3.13550
# Mono.name: Si(111)
# Mono.notes: unfocused, detuned 75%, clockwise at E=12000eV
# Sample.formula: AsS
# Sample.name: AsS (realgar)
# Sample.prep: powder on tape (5 layers)
# Sample.reference: GaAs powder
# Sample.temperature: 100K
# Scan.start_time: 1997-04-20 00:46:37
# ///
#    Note: mono d_spacing is nominal!
#     exafs to K16, GaAs in IR
#     413  E XMU XMUR I0
#-------------
#   energy   i0   itrans  irefer
   11634.9  507191  72867.5  29701
   11644.9  504394  72761.5  29831
   11654.9  501985  72710.5  29986
   11665  500000  72726.5  30178
   11675.1  497537  72680.5  30336
   11684.9  494704  72566.5  30459
   11695  491409  72383.5  30567
   11705.1  489856  72456.5  30773
   11714.9  487580  72407.5  30922
   11725.1  485183  72347.5  31076
   11735  482352  72210.5  31205
   11744.9  479637  72100.5  31341
   11755.1  477091  72004.5  31472
   11765  475104  71973.5  31631
   11775  472909  71918.5  31793
   11784.9  470253  71774.5  31915
   11794.9  467916  71662.5  32039
   11804.9  465307  71484.5  32135
   11814.9  462932  71320.5  32223
   11824.9  460429  71062.5  32272
   11835  458338  70711.5  32253
   11845.1  455694  69909.5  31978
   11845.4  455600  69846.5  31943
   11846  455625  69799.5  31926
   11846.6  455984  69795.5  31925
   11846.9  455351  69681.5  31868
   11847.5  454797  69514.5  31793
   11848.1  454115  69355.5  31714
   11848.4  454407  69356.5  31722
   11849  454023  69213.5  31650
   11849.6  453623  69054.5  31571
   11849.9  453949  69065.5  31564
   11850.6  453853  68937.5  31502
   11850.9  453927  68883.5  31485
   11851.5  453918  68759.5  31418
   11852.1  454160  68649.5  31372
   11852.4  454219  68599.5  31331
   11853  454252  68434.5  31237
   11853.6  453771  68171.5  31106
   11853.9  454160  68113.5  31069
   11854.5  454241  67891.5  30949
   11855.1  454172  67607.5  30799
   11855.4  453782  67430.5  30712
   11856.1  453673  67084.5  30518
   11856.4  453979  66944.5  30443
   11857  453518  66468.5  30179
   11857.6  453129  65927.5  29882
   11857.9  453040  65694.5  29753
   11858.5  453328  65096.5  29421
   11859.1  453041  64285.5  28978
   11859.4  452688  63818.5  28722
   11860  452985  62811.5  28167
   11860.6  452575  61472.5  27430
   11861  452121  60770.5  27055
   11861.6  451890  58947.5  26051
   11861.9  451846  57817.5  25445
   11862.5  451553  55115.5  23989
   11863.1  450875  51392.5  22032
   11863.4  450824  49503.5  21046
   11864  450546  44249.5  18385
   11864.6  450790  37868.5  15291
   11864.9  450500  34371.5  13646
   11865.5  450811  27096.5  10333
   11865.9  450600  24100.5  9017
   11866.5  451056  17698.5  6275
   11867.1  450876  12629.5  4162
   11867.4  450906  10883.5  3432
   11868  450719  8987.5  2604
   11868.6  450651  9005.5  2450
   11868.9  450642  9490.5  2552
   11869.5  449949  11490.5  3058
   11870.1  449905  14147.5  3784
   11870.5  449639  15602.5  4195
   11871.1  448990  18336.5  4973
   11871.4  448862  19388.5  5283
   11872  448647  21383.5  5882
   11872.6  448766  22602.5  6282
   11872.9  448121  22899.5  6396
   11873.5  448718  23026.5  6512
   11874.1  449093  22710.5  6505
   11874.4  449046  22492.5  6488
   11875.1  448712  21998.5  6459
   11875.4  448871  21817.5  6465
   11876  448910  21613.5  6517
   11876.6  448861  21595.5  6608
   11876.9  448684  21641.5  6653
   11877.5  448704  21832.5  6788.01
   11878.1  449019  22090.5  6920
   11878.4  448686  22198.5  6975
   11879  448124  22405.5  7081
   11879.4  448192  22492.5  7123
   11880  448315  22687.5  7216
   11880.6  447980  22830.5  7278
   11880.9  447612  22882.5  7302
   11881.5  447406  23002.5  7348
   11882.1  447284  23128.5  7393
   11882.4  447137  23171.5  7404
   11883  446947  23282.5  7438
   11883.7  446043  23350.5  7458
   11884  446113  23412.5  7477
   11884.6  446177  23518.5  7513
   11884.9  445797  23541.5  7523
   11885.5  445612  23632.5  7560
   11886.1  446067  23765.5  7608
   11886.4  445788  23802.5  7629
   11887  445795  23911.5  7664.01
   11887.6  446196  24056.5  7716
   11888  446751  24144.5  7740
   11888.6  446358  24253.5  7773
   11888.9  446225  24317.5  7794
   11889.5  446273  24463.5  7833
   11890.1  445983  24592.5  7870
   11890.4  445868  24647.5  7893
   11891  445368  24760.5  7920
   11891.6  445613  24931.5  7975
   11892  445702  25008.5  8011
   11892.6  445290  25128.5  8049.99
   11892.9  444575  25157.5  8073
   11893.5  444925  25322.5  8146
   11894.1  444809  25445.5  8214
   11894.4  444831  25526.5  8259
   11895  444510  25634.5  8319
   11895.6  444671  25773.2  8390.76
   11896.3  444705  25901.5  8451.04
   11896.9  444401  26001.3  8493.83
   11897.5  443936  26076.6  8524.16
   11898.4  444250  26238.3  8563
   11899  444321  26315.6  8581.35
   11899.7  444350  26387.5  8589.23
   11900.6  444621  26496.7  8617.62
   11901.2  444959  26554.6  8627.53
   11902.1  445587  26634.9  8659.97
   11903  445625  26654.7  8671.93
   11903.7  445511  26648.1  8676.39
   11904.6  445662  26645.9  8681.39
   11905.5  446388  26650.3  8701.91
   11906.4  446665  26619.1  8702.94
   11907.4  446731  26553.5  8689.49
   11908.3  447363  26499.4  8672.56
   11909.2  448035  26428.8  8653.15
   11910.1  448623  26325.7  8617.26
   11911.1  448475  26172  8548.89
   11912.3  449496  26000.9  8488.03
   11913.2  450703  25891.4  8449.7
   11914.2  450865  25717.3  8383.89
   11915.4  451212  25479.7  8309.59
   11916.3  452680  25368.7  8292.82
   11917.6  453700  25195.1  8270.56
   11918.8  454062  24996.1  8251.83
   11919.7  454644  24888.6  8238.62
   11921  455612  24770.5  8229.92
   11922.2  456691  24682  8219.74
   11923.4  457716  24618  8210.08
   11924.7  458777  24582.5  8202.94
   11925.9  459435  24557.5  8200.33
   11927.1  460761  24594  8219.22
   11928.4  462082  24646  8230.64
   11929.6  462992  24697.5  8235.58
   11930.9  463937  24776.6  8253.04
   11932.4  465006  24920.1  8273.02
   11933.7  466899  25129.2  8314.52
   11934.9  467974  25314.7  8353.54
   11936.4  469085  25579.8  8418.07
   11938  470510  25873.3  8502.13
   11939.2  470783  26076.4  8575.7
   11940.8  471407  26362  8690.8
   11942.3  472714  26700.1  8819.41
   11943.6  474859  27030.7  8941.55
   11945.1  477034  27411.8  9087.21
   11946.7  479719  27810.4  9231.37
   11948.2  481034  28096.6  9344.06
   11949.8  483080  28399.2  9458.27
   11951.3  484651  28648.3  9558.01
   11952.9  485881  28837  9638.26
   11954.8  487476  29019.1  9734.03
   11956.3  488950  29151.8  9799.32
   11957.9  491188  29310  9868.13
   11959.7  493367  29422.6  9912.45
   11961.3  494616  29470.8  9923.3
   11963.2  496112  29502.5  9927.67
   11964.7  498667  29588.7  9962.55
   11966.6  500502  29615.5  9983.95
   11968.5  502672  29644.7  10032.9
   11970  504447  29660.4  10085.3
   11971.9  506615  29675.6  10159.3
   11973.8  508998  29720.4  10232.8
   11975.6  510961  29716.6  10267.8
   11977.5  512771  29714.4  10281.3
   11979.4  514801  29720.6  10299.3
   11981.3  517019  29752.4  10318.9
   11983.1  518689  29752.7  10316
   11985  519646  29705.5  10287.6
   11987.2  521680  29727.8  10273.7
   11989.1  525660  29890.6  10301.3
   11991.3  528601  29988.9  10301.5
   11993.2  529378  30005.7  10271.2
   11995.3  531861  30148  10277.4
   11997.2  534434  30317.9  10313.1
   11999.4  538252  30602.2  10401.3
   12001.3  540270  30810.1  10480.1
   12003.5  543031  31106.5  10612.4
   12005.7  545799  31452.3  10752.1
   12007.9  547791  31777.7  10885.4
   12010.1  548695  32061.6  11010.3
   12012.3  551647  32480.9  11187.6
   12014.5  554957  32925.9  11375.5
   12016.7  558131  33347.3  11551.9
   12018.9  561535  33771.2  11736.8
   12021.1  563741  34101.6  11885.3
   12023.6  567182  34503.5  12071.2
   12025.8  570206  34794  12212.7
   12028  571585  34943.9  12295.7
   12030.5  575720  35262.4  12443.2
   12032.7  578626  35466.3  12542.2
   12035.3  580726  35593.8  12612.7
   12037.8  583555  35765.8  12711.8
   12040  585841  35883.2  12774.4
   12042.5  588991  36020.2  12845.5
   12045  592126  36153.7  12925.1
   12047.6  595214  36268.7  12997.2
   12050.1  598220  36385.2  13062.9
   12052.6  600448  36445.2  13079.1
   12055.2  601563  36448.8  13073.8
   12057.7  604663  36591.8  13109
   12060.2  610177  36878.4  13206.8
   12062.8  615087  37138.4  13322
   12065.3  618764  37332  13420.8
   12068.1  621491  37492.1  13503.1
   12070.7  624232  37665.6  13564.9
   12073.2  626947  37856.7  13625.3
   12076.1  630688  38131.3  13712.1
   12078.6  633198  38344.4  13770.5
   12081.5  636676  38646  13870.4
   12084.3  640353  38972.1  13976.8
   12086.9  644059  39297.8  14096.7
   12089.7  646034  39542.9  14203.2
   12092.6  650745  39967.5  14402.2
   12095.5  653514  40271.7  14568.6
   12098.3  656490  40605.3  14730.7
   12101.2  657939  40848.5  14879.2
   12104.1  663342  41335.1  15107.3
   12107  664894  41583.3  15236.8
   12109.8  669434  42016  15446.9
   12112.7  671799  42318.2  15616.5
   12115.9  677607  42837.9  15873.6
   12118.8  682042  43247.1  16087.3
   12121.6  685485  43585.8  16265.5
   12124.9  687280  43828  16415.1
   12127.7  691532  44184.8  16590.4
   12130.9  694779  44495  16742.1
   12133.8  698800  44812.8  16882.3
   12137  700583  44981  16957.1
   12140.2  706641  45424.8  17124.4
   12143.4  709914  45672.1  17208.2
   12146.3  714381  45973.8  17319.5
   12149.6  717425  46186.1  17406.3
   12152.8  721757  46464.9  17515.7
   12156  723936  46612.2  17583.6
   12159.2  728933  46938  17717
   12162.4  732549  47184.3  17839.9
   12165.6  735033  47367.1  17939.3
   12169.2  740402  47758.5  18123.3
   12172.4  743816  48014.3  18261.8
   12175.6  748565  48377.7  18433.8
   12178.9  751778  48656.5  18573.3
   12182.4  755839  49025.9  18735.3
   12185.7  760211  49409.7  18898.9
   12189.2  762887  49726.1  19066
   12192.5  767723  50178  19275.6
   12196  770823  50540.4  19475.7
   12199.6  774918  50976.3  19684.3
   12202.8  779325  51407.7  19896.5
   12206.4  783092  51823.6  20109.1
   12210  786460  52219.1  20316.3
   12213.5  791008  52675  20557.1
   12217.1  795142  53113.5  20798.3
   12220.7  799184  53537.4  21044
   12224.3  801842  53862.9  21232.3
   12227.8  807626  54382.8  21498.1
   12231.4  811291  54764.2  21716.4
   12235  815439  55172.2  21913.2
   12238.9  819238  55570.7  22138.6
   12242.5  823052  55945.7  22335.4
   12246.1  826607  56301.2  22502.8
   12250  831466  56757.2  22704.7
   12253.6  834365  57057.8  22836.2
   12257.5  840304  57598.8  23062.1
   12261.2  843376  57910.3  23212.6
   12265.1  845678  58172.3  23353.5
   12269  850365  58599.9  23553
   12272.6  856205  59103  23787.1
   12276.6  858309  59346.5  23934.6
   12280.5  865385  59949.6  24212.7
   12284.4  868861  60297.2  24398.3
   12288.4  873009  60686.3  24606.4
   12292.3  877423  61101.9  24843
   12296.3  881145  61466.9  25063.1
   12300.2  884502  61804.6  25258.8
   12304.2  888230  62185.7  25478.9
   12308.2  892184  62586.3  25707.6
   12312.1  896393  63003.5  25950.9
   12316.1  900260  63420.1  26184.6
   12320.4  905053  63898.3  26461.9
   12324.3  907479  64223.9  26669.6
   12328.7  911900  64723.1  26946.9
   12332.6  917078  65248.8  27247.8
   12336.6  921384  65737.9  27508.1
   12340.9  925002  66189.6  27789.9
   12345.2  929779  66734.8  28083.3
   12349.2  931939  67082.5  28291.2
   12353.5  937686  67709.7  28618.6
   12357.9  940975  68138.4  28862.5
   12362.2  945836  68709.7  29168
   12366.2  948759  69110.4  29391
   12370.5  953954  69684.7  29713.4
   12374.9  958131  70185.4  29994.5
   12379.2  961892  70644.6  30258
   12383.5  966545  71158.4  30536
   12387.9  968806  71496.7  30722.6
   12392.6  972658  71952.5  30970.7
   12396.9  977769  72485.8  31266.3
   12401.3  981274  72901.5  31516.4
   12405.6  985957  73399.8  31791
   12410.3  988569  73749.6  32008.2
   12414.7  992848  74225  32270.9
   12419  997177  74688.8  32550.1
   12423.8  1.00157e+06  75183.2  32851.8
   12428.1  1.00461e+06  75583  33099.1
   12432.8  1.00993e+06  76157.3  33445.8
   12437.6  1.01375e+06  76630.2  33761.1
   12441.9  1.01785e+06  77114.6  34052.9
   12446.7  1.02223e+06  77635.4  34397.2
   12451.4  1.02526e+06  78064.9  34677.1
   12456.1  1.02882e+06  78545.7  34997.4
   12460.5  1.03323e+06  79064.1  35328.3
   12465.3  1.03547e+06  79449  35585.7
   12470  1.04218e+06  80164.4  36008.6
   12474.7  1.04714e+06  80784.3  36376
   12479.5  1.04965e+06  81188.8  36659
   12484.2  1.05267e+06  81651.7  36955.5
   12489  1.05461e+06  82025.2  37202.5
   12494.1  1.05887e+06  82597.1  37554
   12498.9  1.06309e+06  83157.6  37892
   12503.6  1.06722e+06  83713.5  38238.5
   12508.4  1.07023e+06  84189  38540.6
   12513.5  1.07377e+06  84721  38873.2
   12518.3  1.0792e+06  85390.5  39279.3
   12523.4  1.08206e+06  85855.5  39591.9
   12528.2  1.08701e+06  86485  39967.1
   12533.4  1.08853e+06  86850  40227.8
   12538.1  1.09317e+06  87457.6  40597
   12543.3  1.09701e+06  88004.6  40967.7
   12548.1  1.10187e+06  88619.1  41350.9
   12553.2  1.10559e+06  89165.2  41706.6
   12558.4  1.10883e+06  89669.7  42025.9
   12563.6  1.11283e+06  90221.8  42407.7
   12568.7  1.11723e+06  90800.3  42785
   12573.5  1.12046e+06  91270.4  43103.8
   12578.7  1.12466e+06  91836  43517.1
   12583.9  1.12773e+06  92324.1  43862
   12589.1  1.13103e+06  92814.7  44202.4
   12594.2  1.13482e+06  93360.8  44586.3
   12599.4  1.13835e+06  93882.4  44958.7
   12605  1.14021e+06  94275.5  45290.6
   12610.2  1.14475e+06  94905.2  45714.1
   12615.4  1.14706e+06  95342.2  46064.1
   12620.6  1.15372e+06  96151.9  46570.6
   12625.8  1.15669e+06  96692.1  46958.6
   12631.3  1.15952e+06  97212.8  47346.2
   12636.6  1.16144e+06  97658.9  47676.2
   12642.1  1.16638e+06  98366.5  48145.8
   12647.4  1.16919e+06  98886.8  48531.9
   12652.9  1.17206e+06  99436.4  48908.5
   12658.2  1.17303e+06  99788.7  49214.6
   12663.8  1.178e+06  100491  49694.3
   12669  1.18042e+06  100996  50055.5
   12674.6  1.18285e+06  101503  50439.1
   12680.2  1.18609e+06  102072  50852.3
   12685.8  1.18929e+06  102633  51281.1
   12691.1  1.19332e+06  103256  51719.3
   12696.7  1.19717e+06  103866  52149.1
   12702.3  1.20155e+06  104545  52631.4
   12708  1.20674e+06  105264  53137.2
   12713.6  1.20806e+06  105666  53495.5
   12719.3  1.21182e+06  106265  53948.4
   12724.9  1.2132e+06  106678  54294.7
   12730.6  1.21583e+06  107191  54712.6
   12736.2  1.21822e+06  107689  55135.1
   12741.9  1.22231e+06  108315  55600
   12747.9  1.2269e+06  109023  56137.4
   12753.6  1.22879e+06  109514  56528.4
   12759.2  1.23112e+06  109991  56957.8
   12764.9  1.23435e+06  110569  57410.9
   12771  1.23607e+06  111047  57828.4
   12776.7  1.2397e+06  111682  58324.4
   12782.4  1.24126e+06  112141  58724
   12788.4  1.24505e+06  112812  59250.1
   12794.1  1.24731e+06  113328  59679.7
   12800.2  1.25191e+06  114060  60242.8
   12806.3  1.25162e+06  114386  60609.4
   12812  1.25747e+06  115231  61202.6
   12818.1  1.26133e+06  115943  61742.2
   12824.2  1.26096e+06  116247  62074.5
   12829.9  1.26495e+06  116957  62617.2
   12836  1.2677e+06  117555  63130.4
   12842.1  1.2697e+06  118079  63582.2
   12848.2  1.27046e+06  118507  63972.5
   12854.4  1.27147e+06  118940  64404.3
   12860.5  1.2743e+06  119555  64913.5
   12866.3  1.27821e+06  120269  65466.4
   12872.4  1.28099e+06  120860  65977.8
   12878.6  1.28326e+06  121430  66467.6
   12885.1  1.28414e+06  121883  66908