File: data/As/ass_10K_scan1.xdi
# XDI/1.0
# Column.1: energy eV
# Column.2: i0
# Column.3: itrans
# Column.4: irefer
# Beamline.name: SSRL 2-3
# Beamline.notes: vert slits = 0.6mm
# Detector.I0: N2 15cm
# Detector.I1: Ar 30cm
# Detector.I2: Ar 15cm
# Element.edge: K
# Element.symbol: As
# Mono.d_spacing: 3.13550
# Mono.name: Si(111)
# Mono.notes: unfocused, detuned 75%, clockwise at E=12000eV
# Sample.formula: AsS
# Sample.name: AsS (realgar)
# Sample.prep: powder on tape (5 layers)
# Sample.reference: GaAs powder
# Sample.temperature: 10K
# Scan.start_time: 1997-04-19 17:37:58
# ///
#    Note: mono d_spacing is nominal!
#     exafs to K16, GaAs in IR
#     413  E XMU XMUR I0
#-------------
#   energy   i0   itrans  irefer
   11634.9  555708  73435.5  30191
   11644.9  553685  73489.5  30399
   11654.9  549917  73307.5  30496
   11665  547463  73309.5  30687
   11675.1  545058  73297.5  30860
   11684.9  542115  73226.5  31004
   11695  537898  72973.5  31076
   11705.1  535275  72935.5  31255
   11714.9  532881  72907.5  31406
   11725.1  530192  72858.5  31572
   11735  528032  72875.5  31753
   11744.9  525172  72788.5  31900
   11755.1  522261  72689.5  32042
   11765  519761  72622.5  32201
   11775  516675  72475.5  32311
   11784.9  513861  72345.5  32434
   11794.9  511681  72323.5  32608
   11804.9  509304  72225.5  32743
   11814.9  505708  71926.5  32780
   11824.9  503649  71786.5  32880
   11835  500292  71321.5  32809
   11845.1  497882  70641.5  32597
   11845.4  497938  70634.5  32598
   11846  497458  70515.5  32545
   11846.6  496545  70344.5  32465
   11846.9  496256  70285.5  32437
   11847.5  497408  70403.5  32501
   11848.1  496776  70244.5  32421
   11848.4  496886  70244.5  32414
   11849  496092  70067.5  32344
   11849.6  496077  69986.5  32304
   11849.9  496284  69970.5  32293
   11850.6  495544  69795.5  32210
   11850.9  494915  69647.5  32131
   11851.5  494989  69567.5  32095
   11852.1  495327  69491.5  32067
   11852.4  495356  69451.5  32033
   11853  494553  69214.5  31915
   11853.6  494736  69092.5  31856
   11853.9  495182  69072.5  31841
   11854.5  495657  68949.5  31768
   11855.1  495254  68687.5  31630
   11855.4  494717  68531.5  31562
   11856.1  495256  68372.5  31455
   11856.4  494844  68193.5  31369
   11857  495017  67921.5  31217
   11857.6  494473  67501.5  30992
   11857.9  494641  67385.5  30925
   11858.5  494685  66978.5  30710
   11859.1  494459  66436.5  30405
   11859.4  494081  66123.5  30227
   11860  493767  65412.5  29841
   11860.6  493906  64653.5  29414
   11861  493784  64315.5  29231
   11861.6  493078  63192.5  28620
   11861.9  493406  62662.5  28315
   11862.5  493340  61124.5  27472
   11863.1  493074  59282.5  26458
   11863.4  492541  58384.5  25975
   11864  492136  55644.5  24483
   11864.6  491735  51804.5  22449
   11864.9  492055  49947.5  21468
   11865.5  491127  44996.5  18952
   11865.9  491041  42583.5  17749
   11866.5  491570  35523.5  14336
   11867.1  491871  28434.5  11061
   11867.4  491689  25080.5  9560
   11868  491256  18553.5  6721
   11868.6  491709  13222.5  4473
   11868.9  491832  11740.5  3847
   11869.5  491541  9079.5  2695
   11870.1  490790  8717.5  2425
   11870.5  491064  9152.5  2496
   11871.1  491185  11115.5  2992
   11871.4  491214  12048.5  3246
   11872  489929  14921.5  4045
   11872.6  489634  17894.5  4898
   11872.9  489928  19025.5  5231
   11873.5  489478  21107.5  5859
   11874.1  489464  22395.5  6284
   11874.4  489448  22655.5  6378
   11875.1  489373  22842.5  6511
   11875.4  489799  22761.5  6523
   11876  489317  22281.5  6490
   11876.6  489054  21811.5  6459
   11876.9  489402  21669.5  6455
   11877.5  489898  21417.5  6502.99
   11878.1  489497  21368.5  6589
   11878.4  489155  21398.5  6631
   11879  488816  21552.5  6751
   11879.4  489320  21668.5  6814.99
   11880  488785  21898.5  6936
   11880.6  488581  22141.5  7057
   11880.9  488452  22230.5  7104
   11881.5  488631  22430.5  7197
   11882.1  488481  22598.5  7274
   11882.4  488314  22643.5  7289.01
   11883  487340  22745.5  7335
   11883.7  488091  22921.5  7391
   11884  487952  22976.5  7412
   11884.6  487299  23078.5  7438
   11884.9  487033  23108.5  7449
   11885.5  486758  23217.5  7480
   11886.1  486441  23311.5  7515
   11886.4  486348  23351.5  7533
   11887  485778  23429.5  7565
   11887.6  486233  23560.5  7613
   11888  486384  23606.5  7627
   11888.6  486238  23715.5  7671
   11888.9  486093  23761.5  7686
   11889.5  486377  23916.5  7733
   11890.1  486429  24051.5  7773
   11890.4  486197  24104.5  7790
   11891  486012  24245.5  7831
   11891.6  485909  24383.5  7870
   11892  485939  24463.5  7894
   11892.6  485789  24618.5  7944
   11892.9  485576  24664.5  7963.01
   11893.5  485427  24813.5  8012
   11894.1  485374  24969.5  8077
   11894.4  485490  25043.5  8106
   11895  484829  25156.5  8168
   11895.6  484439  25281.3  8244.77
   11896.3  484748  25438.5  8323.04
   11896.9  485367  25609.3  8406.83
   11897.5  484950  25709.6  8456.16
   11898.4  484435  25852.4  8520.99
   11899  484649  25969.6  8560.35
   11899.7  485032  26082.4  8590.22
   11900.6  485375  26228.8  8620.62
   11901.2  485298  26284.6  8628.53
   11902.1  485591  26383.9  8651.98
   11903  486061  26458.7  8676.92
   11903.7  486094  26483.1  8688.39
   11904.6  486655  26521.9  8708.39
   11905.5  486250  26484.3  8705.91
   11906.4  486955  26502.1  8717.94
   11907.4  487802  26499.5  8729.48
   11908.3  488320  26461.4  8728.55
   11909.2  488677  26383.8  8710.15
   11910.1  488975  26306.6  8688.25
   11911.1  489879  26216  8651.88
   11912.3  490405  26044.9  8587.03
   11913.2  491419  25941.4  8545.7
   11914.2  491856  25779.3  8482.89
   11915.4  492580  25561.7  8406.6
   11916.3  493729  25438.7  8368.82
   11917.6  494379  25224.1  8316.56
   11918.8  494913  25007.1  8279.83
   11919.7  495333  24868.5  8269.61
   11921  497157  24758.5  8268.92
   11922.2  498280  24638  8255.74
   11923.4  499381  24547  8239.08
   11924.7  499855  24452.5  8222.94
   11925.9  500874  24418.5  8217.33
   11927.1  502527  24430  8230.23
   11928.4  503700  24454  8234.65
   11929.6  505115  24509.5  8252.59
   11930.9  506010  24550.6  8256.04
   11932.4  507423  24658.1  8272.01
   11933.7  508922  24801.1  8299.52
   11934.9  510667  24987.7  8340.54
   11936.4  511500  25201.8  8378.07
   11938  512532  25456.4  8440.13
   11939.2  514289  25720.4  8523.71
   11940.8  515701  26051  8639.8
   11942.3  515781  26318.1  8749.42
   11943.6  516715  26563.7  8843.55
   11945.1  519348  26968.8  8993.2
   11946.7  522487  27392.4  9150.38
   11948.2  524871  27757.6  9291.07
   11949.8  526476  28050.2  9411.28
   11951.3  528345  28332.3  9522.01
   11952.9  530839  28606  9625.26
   11954.8  532369  28820.1  9721.03
   11956.3  533665  28961.8  9798.32
   11957.9  534466  29053  9852.12
   11959.7  536843  29183.7  9917.45
   11961.3  539786  29335.8  9960.3
   11963.2  542167  29415.5  9981.66
   11964.7  543900  29462.7  9994.55
   11966.6  545032  29444.4  10003
   11968.5  547397  29485.7  10036.9
   11970  550323  29564.4  10103.3
   11971.9  552293  29568.6  10163.3
   11973.8  554528  29578.4  10229.8
   11975.6  556593  29577.6  10278.8
   11977.5  559121  29607.4  10321.3
   11979.4  561329  29610.6  10336.3
   11981.3  563145  29599.4  10344.9
   11983.1  566056  29654.7  10371
   11985  566938  29607.5  10350.6
   11987.2  567610  29536.8  10311.7
   11989.1  570437  29592.6  10305.3
   11991.3  575861  29799.9  10345.5
   11993.2  578780  29910.7  10348.2
   11995.3  580414  29961.1  10321.4
   11997.2  582803  30100.9  10345.1
   11999.4  585352  30272.2  10382.3
   12001.3  587666  30467.1  10442.1
   12003.5  589564  30674.4  10525.4
   12005.7  592878  31009.3  10671.1
   12007.9  596040  31366.7  10819.5
   12010.1  597734  31681.6  10956.3
   12012.3  598569  31955.9  11085.6
   12014.5  602958  32453.8  11289.5
   12016.7  607608  32960.3  11498.9
   12018.9  610776  33378.2  11674.8
   12021.1  614021  33772.6  11843.2
   12023.6  616424  34121.5  12018.2
   12025.8  618827  34404  12146.7
   12028  622868  34721.9  12299.6
   12030.5  624817  34902.4  12396.2
   12032.7  627142  35085.3  12491.2
   12035.3  630778  35300.8  12598.7
   12037.8  633456  35444.7  12677.8
   12040  636525  35605.2  12766.4
   12042.5  640026  35760.2  12847.5
   12045  643204  35881.7  12915.1
   12047.6  647091  36021.7  12997.3
   12050.1  648752  36034.2  13025.9
   12052.6  652306  36167.3  13089.1
   12055.2  653682  36170.8  13082.8
   12057.7  656662  36279.8  13105
   12060.2  662050  36521.4  13175.8
   12062.8  667116  36760.4  13277
   12065.3  670143  36908  13353.8
   12068.1  673011  37045  13431.1
   12070.7  676634  37249.6  13527.9
   12073.2  679672  37433.7  13581.3
   12076.1  683778  37707.3  13667.1
   12078.6  685635  37862.4  13703.5
   12081.5  691272  38262  13841.4
   12084.3  693987  38517.1  13916.8
   12086.9  696561  38762.7  14007.7
   12089.7  701324  39141.9  14156.2
   12092.6  703801  39407.5  14282.2
   12095.5  708693  39826.6  14487.7
   12098.3  710633  40077.3  14636.7
   12101.2  714910  40472.5  14830.2
   12104.1  718023  40798.2  15001.3
   12107  722428  41203.3  15199.8
   12109.8  724745  41495  15344.9
   12112.7  729437  41920.2  15557.5
   12115.9  732968  42285.9  15758.6
   12118.8  737901  42711.1  15974.3
   12121.6  741006  43024.8  16150.5
   12124.9  746010  43444  16368.2
   12127.7  747219  43608.8  16479.4
   12130.9  753218  44066  16692.1
   12133.8  755130  44253.8  16780.3
   12137  758962  44552  16915.1
   12140.2  763211  44853.8  17028.4
   12143.4  769434  45251.1  17171.2
   12146.3  771235  45383.8  17220.5
   12149.6  775635  45670.1  17328.4
   12152.8  780650  45961.9  17452.7
   12156  783498  46140.2  17522.6
   12159.2  788552  46435  17652
   12162.4  792163  46653.3  17758.9
   12165.6  795876  46903.1  17880.4
   12169.2  799710  47153.5  18012.3
   12172.4  805010  47512.3  18178.8
   12175.6  808548  47777.7  18318.8
   12178.9  812637  48095.5  18489.3
   12182.4  816654  48415.9  18631.4
   12185.7  819459  48688.8  18754.9
   12189.2  825662  49211.1  18991
   12192.5  828493  49510  19155.6
   12196  832919  49930.4  19371.7
   12199.6  836788  50331.3  19561.3
   12202.8  841765  50790.7  19783.5
   12206.4  845766  51204.6  20003.1
   12210  849055  51580  20197.3
   12213.5  854179  52062  20448
   12217.1  858574  52495.5  20685.3
   12220.7  862423  52882.4  20914
   12224.3  867062  53310.8  21169.3
   12227.8  871176  53704.8  21382.1
   12231.4  876128  54144.3  21616.4
   12235  880397  54530.3  21816.2
   12238.9  882846  54826.7  21994.6
   12242.5  887864  55263.7  22212.4
   12246.1  892258  55648.2  22409.8
   12250  893514  55860.2  22507.7
   12253.6  899854  56371.7  22724.2
   12257.5  906189  56882.8  22937.1
   12261.2  908743  57153.3  23066.6
   12265.1  913477  57568.4  23272.6
   12269  916025  57842.9  23429.1
   12272.6  921596  58295.9  23642.1
   12276.6  925958  58675.5  23844.6
   12280.5  930391  59066.6  24030.7
   12284.4  933576  59372.2  24200.3
   12288.4  937986  59750.3  24410.4
   12292.3  943569  60203.8  24659
   12296.3  947269  60559  24869.1
   12300.2  951390  60922.6  25086.8
   12304.2  956102  61345.7  25324.9
   12308.2  960774  61774.3  25558.6
   12312.1  964989  62179.4  25793.9
   12316.1  968738  62552.1  26017.6
   12320.4  972223  62924.3  26250.9
   12324.3  977534  63430.9  26530.6
   12328.7  981822  63899  26803.9
   12332.6  985829  64324.7  27051.7
   12336.6  990101  64782.9  27310.1
   12340.9  993468  65207.6  27574.9
   12345.2  999117  65771.8  27886.3
   12349.2  1.00352e+06  66247.5  28141.2
   12353.5  1.00697e+06  66692.7  28387.6
   12357.9  1.01075e+06  67167.4  28646.5
   12362.2  1.01694e+06  67776.7  28973
   12366.2  1.0208e+06  68225.4  29225.9
   12370.5  1.02477e+06  68710.6  29504.4
   12374.9  1.02779e+06  69094.4  29745.4
   12379.2  1.03287e+06  69614.6  30027
   12383.5  1.03703e+06  70077.4  30277
   12387.9  1.04208e+06  70580.7  30551.6
   12392.6  1.04404e+06  70896.5  30745.7
   12396.9  1.04814e+06  71336.8  30981.3
   12401.3  1.05505e+06  71959.6  31329.4
   12405.6  1.05884e+06  72369.8  31568
   12410.3  1.06329e+06  72836.7  31836.2
   12414.7  1.06643e+06  73184  32051.9
   12419  1.07096e+06  73650.8  32317.1
   12423.8  1.07427e+06  74049.1  32583.8
   12428.1  1.08055e+06  74625  32924.1
   12432.8  1.08381e+06  75019.3  33183.8
   12437.6  1.08884e+06  75578.2  33532.1
   12441.9  1.09353e+06  76064.6  33829.9
   12446.7  1.09517e+06  76389.5  34084.2
   12451.4  1.09906e+06  76853.8  34373
   12456.1  1.1038e+06  77399.7  34724.4
   12460.5  1.10874e+06  77927.1  35055.3
   12465.3  1.10955e+06  78209  35274.7
   12470  1.11697e+06  78946.4  35695.6
   12474.7  1.12115e+06  79461.4  36038
   12479.5  1.12401e+06  79878.8  36319
   12484.2  1.13017e+06  80549.7  36717.5
   12489  1.133e+06  80966.2  36980.4
   12494.1  1.1382e+06  81602.2  37369
   12498.9  1.14288e+06  82160.6  37706
   12503.6  1.1465e+06  82644.5  38003.5
   12508.4  1.15129e+06  83234  38374.6
   12513.5  1.15105e+06  83475  38574.2
   12518.3  1.15829e+06  84244.5  39025.3
   12523.4  1.15895e+06  84543.4  39254.9
   12528.2  1.16334e+06  85096  39598.1
   12533.4  1.16886e+06  85751  40006.8
   12538.1  1.17159e+06  86178.5  40285.9
   12543.3  1.17618e+06  86759.6  40678.7
   12548.1  1.17984e+06  87248.1  40997.9
   12553.2  1.18531e+06  87889.1  41400.6
   12558.4  1.18871e+06  88386.7  41743.9
   12563.6  1.1919e+06  88842.8  42077.7
   12568.7  1.19719e+06  89477.4  42481
   12573.5  1.19871e+06  89810.4  42743.8
   12578.7  1.20455e+06  90452  43173.1
   12583.9  1.20792e+06  90949.1  43517
   12589.1  1.21073e+06  91397.7  43840.4
   12594.2  1.2149e+06  91933.8  44231.3
   12599.4  1.2173e+06  92354.4  44552.7
   12605  1.221e+06  92893.5  44949.7
   12610.2  1.22513e+06  93455.2  45354.1
   12615.4  1.22763e+06  93901.3  45700.1
   12620.6  1.2334e+06  94618  46167.6
   12625.8  1.23862e+06  95285.1  46619.6
   12631.3  1.23974e+06  95649.8  46934.2
   12636.6  1.24444e+06  96303.9  47349.2
   12642.1  1.24797e+06  96881.6  47778.8
   12647.4  1.25157e+06  97465.8  48185.9
   12652.9  1.25498e+06  98033.4  48591.5
   12658.2  1.25609e+06  98419.7  48900.6
   12663.8  1.25885e+06  98884.4  49265.3
   12669  1.26075e+06  99344.6  49596.5
   12674.6  1.2603e+06  99623.3  49871.1
   12680.2  1.26126e+06  99997.6  50195.4
   12685.8  1.26433e+06  100530  50579.1
   12691.1  1.26482e+06  100849  50878.4
   12696.7  1.2649e+06  101149  51172.1
   12702.3  1.26842e+06  101725  51598.4
   12708  1.26858e+06  102015  51887.2
   12713.6  1.26913e+06  102348  52189.5
   12719.3  1.27195e+06  102869  52611.4
   12724.9  1.27266e+06  103213  52928.7
   12730.6  1.27629e+06  103783  53386.6
   12736.2  1.28133e+06  104483  53860.1
   12741.9  1.28466e+06  105041  54300.9
   12747.9  1.28666e+06  105527  54717.4
   12753.6  1.28676e+06  105827  55038.4
   12759.2  1.29121e+06  106494  55525.9
   12764.9  1.29429e+06  107032  55962.8
   12771  1.29765e+06  107646  56445.4
   12776.7  1.29825e+06  107970  56777.4
   12782.4  1.29926e+06  108377  57160
   12788.4  1.30308e+06  109017  57656.1
   12794.1  1.30631e+06  109604  58132.7
   12800.2  1.30724e+06  109998  58499.8
   12806.3  1.3115e+06  110698  59037.4
   12812  1.31266e+06  111105  59395.6
   12818.1  1.3189e+06  111968  60036.2
   12824.2  1.31704e+06  112151  60301.5
   12829.9  1.32296e+06  112978  60907.2
   12836  1.32323e+06  113356  61277.4
   12842.1  1.32812e+06  114126  61853.2
   12848.2  1.33002e+06  114619  62299.5
   12854.4  1.33456e+06  115370  62863.3
   12860.5  1.33969e+06  116176  63492.6
   12866.3  1.33933e+06  116472  63814.4
   12872.4  1.33994e+06  116870  64214.7
   12878.6  1.34592e+06  117730  64880.6
   12885.1  1.34963e+06  118431  65460