File: data/As/ass_100K_scan3.xdi
# XDI/1.0
# Column.1: energy eV
# Column.2: i0
# Column.3: itrans
# Column.4: irefer
# Beamline.name: SSRL 2-3
# Beamline.notes: vert slits = 0.6mm
# Detector.I0: N2 15cm
# Detector.I1: Ar 30cm
# Detector.I2: Ar 15cm
# Element.edge: K
# Element.symbol: As
# Mono.d_spacing: 3.13550
# Mono.name: Si(111)
# Mono.notes: unfocused, detuned 75%, clockwise at E=12000eV
# Sample.formula: AsS
# Sample.name: AsS (realgar)
# Sample.prep: powder on tape (5 layers)
# Sample.reference: GaAs powder
# Sample.temperature: 100K
# Scan.start_time: 1997-04-20 00:46:37
# ///
#    Note: mono d_spacing is nominal!
#     exafs to K16, GaAs in IR
#     413  E XMU XMUR I0
#-------------
#   energy   i0   itrans  irefer
   11634.9  499361  71714.5  29243
   11644.9  497388  71726.5  29426
   11654.9  494904  71684.5  29588
   11665  492251  71590.5  29720
   11675.1  489943  71563.5  29889
   11684.9  487476  71501.5  30037
   11695  484297  71341.5  30140
   11705.1  482792  71399.5  30341
   11714.9  480412  71342.5  30493
   11725.1  477715  71209.5  30612
   11735  475508  71179.5  30783
   11744.9  472668  71010.5  30881
   11755.1  470283  70969.5  31037
   11765  468228  70915.5  31193
   11775  465979  70856.5  31342
   11784.9  463538  70732.5  31463
   11794.9  461395  70651.5  31600
   11804.9  459486  70587.5  31748
   11814.9  456898  70374.5  31808
   11824.9  454394  70123.5  31862
   11835  451678  69680.5  31801
   11845.1  449173  68868.5  31520
   11845.4  449560  68888.5  31532
   11846  449412  68834.5  31505
   11846.6  449139  68733.5  31460
   11846.9  448844  68659.5  31425
   11847.5  448942  68609.5  31404
   11848.1  448409  68446.5  31320
   11848.4  448075  68359.5  31285
   11849  448130  68279.5  31247
   11849.6  447453  68101.5  31157
   11849.9  448045  68140.5  31169
   11850.6  447647  67979.5  31092
   11850.9  447498  67879.5  31045
   11851.5  447744  67805.5  31001
   11852.1  447917  67672.5  30932
   11852.4  447867  67620.5  30899
   11853  447758  67444.5  30807
   11853.6  448203  67321.5  30740
   11853.9  447893  67153.5  30660
   11854.5  447627  66868.5  30503
   11855.1  447211  66542.5  30323
   11855.4  447020  66415.5  30262
   11856.1  447026  66086.5  30085
   11856.4  446857  65868.5  29970
   11857  446591  65435.5  29728
   11857.6  446750  64954.5  29469
   11857.9  446670  64714.5  29331
   11858.5  446530  64076.5  28981
   11859.1  446664  63368.5  28587
   11859.4  446673  62950.5  28349
   11860  446501  61904.5  27776
   11860.6  446279  60590.5  27056
   11861  446453  59974.5  26717
   11861.6  446366  58162.5  25722
   11861.9  445972  57031.5  25113
   11862.5  445233  54298.5  23648
   11863.1  445092  50700.5  21740
   11863.4  445149  48818.5  20771
   11864  444971  43803.5  18230
   11864.6  444554  37480.5  15151
   11864.9  444879  33930.5  13475
   11865.5  445133  26853.5  10252
   11865.9  444927  23806.5  8913
   11866.5  444657  17629.5  6261
   11867.1  444989  12455.5  4102
   11867.4  445200  10705.5  3377
   11868  444968  8855.5  2565
   11868.6  444372  8890.5  2426
   11868.9  444494  9378.5  2529
   11869.5  444651  11353.5  3034
   11870.1  444158  13964.5  3751
   11870.5  443607  15381.5  4148
   11871.1  443626  18096.5  4927
   11871.4  443476  19139.5  5226
   11872  442957  21083.5  5812
   11872.6  442567  22313.5  6212
   11872.9  442632  22611.5  6331
   11873.5  443187  22723.5  6435
   11874.1  442821  22377.5  6422
   11874.4  442852  22165.5  6406
   11875.1  443109  21725.5  6389
   11875.4  443155  21550.5  6397
   11876  442676  21299.5  6435
   11876.6  442507  21293.5  6522
   11876.9  442625  21350.5  6579.01
   11877.5  442695  21535.5  6706
   11878.1  442329  21762.5  6831
   11878.4  441861  21862.5  6882
   11879  442313  22107.5  7001
   11879.4  442238  22192.5  7037
   11880  441997  22357.5  7116
   11880.6  441670  22500.5  7185
   11880.9  441979  22591.5  7222
   11881.5  441522  22701.5  7261
   11882.1  441023  22806.5  7296
   11882.4  441166  22865.5  7313
   11883  440955  22975.5  7343
   11883.7  440199  23046.5  7366
   11884  439742  23080.5  7377.99
   11884.6  440026  23194.5  7416.01
   11884.9  440017  23242.5  7434
   11885.5  439873  23338.5  7469
   11886.1  439531  23421.5  7507
   11886.4  439588  23479.5  7528
   11887  440464  23638.5  7585
   11887.6  440348  23749.5  7621
   11888  439910  23780.5  7631
   11888.6  439893  23908.5  7670
   11888.9  439951  23985.5  7691.99
   11889.5  439866  24118.5  7734
   11890.1  439667  24250.5  7771
   11890.4  439677  24319.5  7789.99
   11891  439525  24458.5  7835
   11891.6  439322  24588.5  7875
   11892  438899  24647.5  7899.99
   11892.6  438946  24791.5  7960
   11892.9  439204  24874.5  7994
   11893.5  439262  25003.5  8051
   11894.1  438646  25107.5  8115
   11894.4  438735  25185.5  8159
   11895  438733  25312.5  8227
   11895.6  438834  25449.3  8299.76
   11896.3  438222  25532.5  8342.04
   11896.9  438434  25652.3  8393.84
   11897.5  438741  25782.6  8433.16
   11898.4  438360  25894.4  8458.99
   11899  438143  25959.6  8475.35
   11899.7  438634  26060.4  8490.22
   11900.6  438818  26154.7  8512.62
   11901.2  439001  26202.6  8525.54
   11902.1  438769  26227.9  8536.97
   11903  439432  26288.7  8563.93
   11903.7  439680  26305.1  8574.4
   11904.6  439791  26289.9  8578.39
   11905.5  439551  26243.3  8578.91
   11906.4  440164  26231.1  8578.94
   11907.4  441207  26214.5  8588.48
   11908.3  441437  26147.4  8570.55
   11909.2  441466  26027.8  8529.15
   11910.1  442246  25948.6  8501.25
   11911.1  443069  25846  8463.88
   11912.3  444203  25684  8392.03
   11913.2  444117  25506.4  8329.7
   11914.2  445329  25378.3  8285.88
   11915.4  446482  25192.7  8230.6
   11916.3  446755  25028.7  8196.82
   11917.6  447510  24840.1  8170.57
   11918.8  447842  24644.1  8149.82
   11919.7  449124  24571.5  8149.62
   11921  450115  24459.5  8140.92
   11922.2  450918  24367  8124.74
   11923.4  451583  24281  8106.07
   11924.7  452629  24251.5  8105.94
   11925.9  454059  24269.5  8120.32
   11927.1  455659  24324  8137.22
   11928.4  456491  24356  8140.64
   11929.6  456632  24363.5  8137.58
   11930.9  457982  24467.6  8155.04
   11932.4  459580  24640.1  8192.02
   11933.7  461252  24837.1  8231.52
   11934.9  462299  25023.7  8270.54
   11936.4  462941  25252.8  8321.07
   11938  464406  25557.3  8419.13
   11939.2  465173  25782.4  8491.7
   11940.8  465588  26061  8605.8
   11942.3  467008  26395.1  8730.41
   11943.6  468782  26698.7  8840.55
   11945.1  471710  27126.8  8996.21
   11946.7  473998  27487.4  9132.38
   11948.2  475478  27784.6  9252.06
   11949.8  476571  28034.2  9349.27
   11951.3  478563  28298.3  9455
   11952.9  479806  28483  9528.26
   11954.8  481493  28675.1  9622.02
   11956.3  483491  28837.8  9706.31
   11957.9  485213  28960  9761.13
   11959.7  486899  29051.7  9793.45
   11961.3  488431  29106.9  9807.3
   11963.2  490613  29175.5  9831.67
   11964.7  492631  29238.7  9848.55
   11966.6  494693  29278.5  9879.96
   11968.5  496593  29291.7  9921.88
   11970  498137  29301.4  9976.32
   11971.9  499399  29270.6  10027.3
   11973.8  501695  29295.4  10084.8
   11975.6  504353  29335.6  10145.8
   11977.5  505909  29323.4  10154.3
   11979.4  508323  29360.7  10181.3
   11981.3  510199  29364.4  10191.9
   11983.1  512062  29378.7  10198
   11985  513221  29349.5  10180.6
   11987.2  515237  29369.8  10159.7
   11989.1  518972  29517.6  10186.3
   11991.3  522478  29653.9  10191.5
   11993.2  524100  29714.7  10176.2
   11995.3  525730  29802.1  10169.4
   11997.2  528705  30003.9  10215.1
   11999.4  530936  30193.2  10270.3
   12001.3  533331  30424.1  10366.1
   12003.5  535582  30690.4  10476.3
   12005.7  538925  31058.3  10624.1
   12007.9  540135  31323.7  10745.5
   12010.1  542167  31677.6  10896.3
   12012.3  544709  32067  11059.6
   12014.5  548261  32524.9  11253.5
   12016.7  551011  32927.2  11424.9
   12018.9  554745  33368.2  11609.8
   12021.1  557603  33733.6  11772.3
   12023.6  560304  34084.5  11940.2
   12025.8  562956  34356  12067.7
   12028  564808  34536.9  12161.6
   12030.5  568058  34803.3  12288.1
   12032.7  569552  34914.3  12354.2
   12035.3  572497  35096.8  12452.7
   12037.8  576169  35315.8  12557.8
   12040  578960  35466.2  12632.4
   12042.5  581522  35570.2  12702.5
   12045  584762  35705.7  12779.1
   12047.6  587541  35806.7  12841.3
   12050.1  590892  35942.2  12912.9
   12052.6  592843  35991.3  12932.1
   12055.2  594172  36007.8  12923.8
   12057.7  597319  36155.8  12964
   12060.2  602628  36423.4  13058.8
   12062.8  606876  36648.4  13160
   12065.3  609075  36754  13224.8
   12068.1  612696  36966  13322.1
   12070.7  615446  37146.6  13394.9
   12073.2  619242  37401.7  13473.3
   12076.1  621973  37613.3  13537.1
   12078.6  625339  37877.4  13614.5
   12081.5  628218  38142  13695.4
   12084.3  630891  38401.1  13779.8
   12086.9  635358  38783.7  13919.7
   12089.7  637777  39044.9  14037.2
   12092.6  642014  39436.5  14218.2
   12095.5  644281  39717.7  14376.7
   12098.3  647481  40054.3  14554.7
   12101.2  649254  40315.5  14695.2
   12104.1  654494  40783.1  14916.3
   12107  655880  41039.3  15059.8
   12109.8  660599  41475  15269.9
   12112.7  663304  41803.2  15440.5
   12115.9  668977  42303.9  15683.6
   12118.8  671591  42595.1  15856.3
   12121.6  676122  43001.8  16057.5
   12124.9  678147  43247  16206.2
   12127.7  682614  43630.8  16399.4
   12130.9  685488  43898  16526.1
   12133.8  690045  44263.8  16683.3
   12137  692858  44499  16782.1
   12140.2  697247  44823.8  16909.4
   12143.4  700593  45074.1  16984.2
   12146.3  704358  45335.8  17091.5
   12149.6  707364  45529.1  17166.4
   12152.8  711820  45832.9  17283.7
   12156  714927  46033.2  17374.6
   12159.2  718582  46274  17480
   12162.4  722921  46564.3  17615.9
   12165.6  724699  46691.1  17695.4
   12169.2  729738  47064.5  17870.3
   12172.4  733580  47360.3  18013.8
   12175.6  737996  47693.7  18175.8
   12178.9  741135  47976.5  18324.3
   12182.4  745099  48337.9  18482.3
   12185.7  749225  48709.7  18652.9
   12189.2  751854  49020.1  18809
   12192.5  756370  49442  19014.6
   12196  759639  49805.4  19205.7
   12199.6  764348  50270.3  19431.3
   12202.8  768280  50692.7  19629.5
   12206.4  772254  51120.7  19850.2
   12210  775702  51516  20056.3
   12213.5  779678  51939  20280.1
   12217.1  783983  52378.4  20528.3
   12220.7  788309  52810.4  20776
   12224.3  791836  53204.8  21000.3
   12227.8  795670  53593.8  21208.1
   12231.4  800413  54041.2  21435.4
   12235  803877  54397.2  21624.2
   12238.9  807629  54787.8  21843.6
   12242.5  810310  55083.7  22001.4
   12246.1  815051  55518.3  22214.8
   12250  819588  55953.2  22401.7
   12253.6  822981  56278.8  22539.2
   12257.5  827651  56713.8  22732.1
   12261.2  831988  57116.3  22908.6
   12265.1  835227  57448.4  23074.6
   12269  838758  57797.9  23253
   12272.6  843733  58241.9  23469.1
   12276.6  847119  58577.5  23640.6
   12280.5  852346  59040.6  23863.7
   12284.4  856020  59399.2  24055.3
   12288.4  859514  59748.2  24261.3
   12292.3  864833  60217.9  24510
   12296.3  868728  60586.9  24716.1
   12300.2  873465  61036.6  24968.8
   12304.2  876199  61335.7  25162
   12308.2  880716  61775.3  25405.7
   12312.1  885611  62243.5  25666.9
   12316.1  888251  62569.1  25868.6
   12320.4  892666  63040.2  26127.9
   12324.3  895806  63413.9  26348.6
   12328.7  901245  63966.1  26652.9
   12332.6  905235  64421.7  26919.7
   12336.6  909892  64924.9  27195.1
   12340.9  913336  65360.6  27460.9
   12345.2  917776  65890.8  27751.3
   12349.2  919959  66225.5  27952.2
   12353.5  926249  66888.7  28290.6
   12357.9  928749  67274.4  28514.5
   12362.2  934354  67874.7  28835
   12366.2  936989  68256.4  29059
   12370.5  941604  68798.7  29363.5
   12374.9  945571  69280.4  29640.4
   12379.2  948786  69692.7  29875
   12383.5  954186  70254.4  30167
   12387.9  957326  70650.7  30389.6
   12392.6  959304  70967.5  30579.7
   12396.9  965363  71569.8  30902.3
   12401.3  970924  72131.5  31205.4
   12405.6  974293  72523.8  31434
   12410.3  978369  72982.7  31696.2
   12414.7  981412  73349  31925.9
   12419  984825  73755.8  32180.1
   12423.8  989129  74255.1  32480.8
   12428.1  994793  74837  32812.1
   12432.8  1.00033e+06  75413.3  33153.8
   12437.6  1.0029e+06  75806.2  33414.1
   12441.9  1.00743e+06  76306.6  33729.9
   12446.7  1.01017e+06  76719.4  34019.2
   12451.4  1.01525e+06  77292.9  34364.1
   12456.1  1.01994e+06  77845.7  34704.4
   12460.5  1.02327e+06  78300.1  34993.3
   12465.3  1.02584e+06  78708  35264.7
   12470  1.03246e+06  79435.5  35693.6
   12474.7  1.03564e+06  79882.3  35989
   12479.5  1.0398e+06  80432.8  36339
   12484.2  1.04273e+06  80873.7  36619.4
   12489  1.0455e+06  81304.1  36895.4
   12494.1  1.05015e+06  81910.2  37261
   12498.9  1.05417e+06  82444.6  37588
   12503.6  1.05833e+06  83008.5  37938.5
   12508.4  1.06259e+06  83566  38264.6
   12513.5  1.06396e+06  83940  38526.2
   12518.3  1.07007e+06  84646.5  38950.3
   12523.4  1.07146e+06  84994.5  39202.9
   12528.2  1.07536e+06  85530  39551.1
   12533.4  1.07881e+06  86054  39879.8
   12538.1  1.08318e+06  86641.5  40258
   12543.3  1.08686e+06  87172.6  40587.7
   12548.1  1.09084e+06  87719.1  40940.9
   12553.2  1.09497e+06  88294.1  41307.6
   12558.4  1.09885e+06  88828.7  41665.9
   12563.6  1.10251e+06  89339.7  42008.7
   12568.7  1.10583e+06  89831.3  42366
   12573.5  1.10878e+06  90289.4  42673.8
   12578.7  1.11367e+06  90914  43078.2
   12583.9  1.11655e+06  91361.1  43402
   12589.1  1.11957e+06  91835.6  43755.4
   12594.2  1.12262e+06  92294.8  44095.3
   12599.4  1.12607e+06  92826.4  44474.7
   12605  1.12825e+06  93241.5  44812.7
   12610.2  1.13129e+06  93748.1  45175.1
   12615.4  1.13391e+06  94205.3  45518.1
   12620.6  1.13835e+06  94849.9  45972.6
   12625.8  1.14316e+06  95522  46412.6
   12631.3  1.14653e+06  96078.8  46842.1
   12636.6  1.14924e+06  96580.9  47171.2
   12642.1  1.15284e+06  97184.6  47608.8
   12647.4  1.15427e+06  97585.8  47923.9
   12652.9  1.157e+06  98136.4  48317.5
   12658.2  1.15941e+06  98600.6  48666.6
   12663.8  1.16348e+06  99229.3  49103.3
   12669  1.16849e+06  99921.6  49584.5
   12674.6  1.17244e+06  100564  50019.1
   12680.2  1.1747e+06  101042  50392.4
   12685.8  1.17883e+06  101696  50867.1
   12691.1  1.18021e+06  102069  51165.3
   12696.7  1.18529e+06  102809  51678.1
   12702.3  1.18865e+06  103378  52095.4
   12708  1.1924e+06  103986  52537.2
   12713.6  1.19606e+06  104597  52981.5
   12719.3  1.19738e+06  105010  53353.4
   12724.9  1.19844e+06  105358  53678.7
   12730.6  1.20481e+06  106198  54238.6
   12736.2  1.20677e+06  106631  54626
   12741.9  1.20978e+06  107182  55055
   12747.9  1.21323e+06  107800  55547.4
   12753.6  1.2161e+06  108351  55976.4
   12759.2  1.21899e+06  108888  56402.9
   12764.9  1.22054e+06  109314  56794.9
   12771  1.22343e+06  109892  57249.4
   12776.7  1.22651e+06  110475  57703.4
   12782.4  1.22759e+06  110869  58091
   12788.4  1.23157e+06  111552  58611.1
   12794.1  1.2354e+06  112207  59120.7
   12800.2  1.23724e+06  112704  59566.8
   12806.3  1.23884e+06  113210  59979.4
   12812  1.24282e+06  113879  60507.6
   12818.1  1.24429e+06  114340  60911.3
   12824.2  1.24808e+06  115024  61455.5
   12829.9  1.2522e+06  115742  62002.2
   12836  1.25333e+06  116195  62423.4
   12842.1  1.25787e+06  116955  62988.1
   12848.2  1.25936e+06  117451  63431.4
   12854.4  1.2614e+06  117975  63898.2
   12860.5  1.26318e+06  118489  64358.6
   12866.3  1.26679e+06  119153  64887.4
   12872.4  1.26923e+06  119743  65387.7
   12878.6  1.27099e+06  120258  65850.6
   12885.1  1.2726e+06  120760  66338