File: data/As/ass_10K_scan2.xdi
# XDI/1.0
# Column.1: energy eV
# Column.2: i0
# Column.3: itrans
# Column.4: irefer
# Beamline.name: SSRL 2-3
# Beamline.notes: vert slits = 0.6mm
# Detector.I0: N2 15cm
# Detector.I1: Ar 30cm
# Detector.I2: Ar 15cm
# Element.edge: K
# Element.symbol: As
# Mono.d_spacing: 3.13550
# Mono.name: Si(111)
# Mono.notes: unfocused, detuned 75%, clockwise at E=12000eV
# Sample.formula: AsS
# Sample.name: AsS (realgar)
# Sample.prep: powder on tape (5 layers)
# Sample.reference: GaAs powder
# Sample.temperature: 10K
# Scan.start_time: 1997-04-19 17:37:58
# ///
#    Note: mono d_spacing is nominal!
#     exafs to K16, GaAs in IR
#     413  E XMU XMUR I0
#-------------
#   energy   i0   itrans  irefer
   11634.9  548697  72457.5  29774
   11644.9  546116  72424.5  29932
   11654.9  543127  72368.5  30092
   11665  540459  72343.5  30258
   11675.1  538334  72375.5  30446
   11684.9  535307  72283.5  30588
   11695  532489  72211.5  30731
   11705.1  529350  72105.5  30875
   11714.9  526446  72013.5  31013
   11725.1  524880  72107.5  31222
   11735  522769  72109.5  31412
   11744.9  519848  72023.5  31549
   11755.1  516863  71902.5  31677
   11765  514399  71835.5  31831
   11775  511480  71726.5  31956
   11784.9  509507  71713.5  32121
   11794.9  506762  71577.5  32242
   11804.9  503909  71440.5  32355
   11814.9  501301  71274.5  32458
   11824.9  498693  71048.5  32525
   11835  496305  70729.5  32523
   11845.1  493535  70005.5  32288
   11845.4  493366  69961.5  32269
   11846  492690  69835.5  32219
   11846.6  492707  69778.5  32185
   11846.9  492272  69714.5  32157
   11847.5  492969  69762.5  32181
   11848.1  492170  69580.5  32088
   11848.4  491683  69489.5  32062
   11849  491543  69393.5  32009
   11849.6  491664  69345.5  31988
   11849.9  491629  69302.5  31964
   11850.6  490756  69096.5  31871
   11850.9  490830  69066.5  31858
   11851.5  490549  68918.5  31783
   11852.1  490636  68825.5  31729
   11852.4  490256  68732.5  31686
   11853  490241  68596.5  31613
   11853.6  491035  68563.5  31591
   11853.9  491136  68496.5  31556
   11854.5  491110  68307.5  31457
   11855.1  490803  68094.5  31346
   11855.4  490583  67981.5  31283
   11856.1  490707  67740.5  31156
   11856.4  490594  67608.5  31084
   11857  490096  67261.5  30902
   11857.6  490200  66944.5  30730
   11857.9  490138  66787.5  30641
   11858.5  490183  66376.5  30406
   11859.1  489729  65834.5  30117
   11859.4  490041  65622.5  29994
   11860  490023  64997.5  29646
   11860.6  488887  64133.5  29176
   11861  488994  63767.5  28974
   11861.6  489536  62868.5  28473
   11861.9  489498  62259.5  28128
   11862.5  488429  60739.5  27300
   11863.1  487881  58934.5  26311
   11863.4  488029  58043.5  25817
   11864  487613  55369.5  24378
   11864.6  487603  51769.5  22455
   11864.9  487036  49719.5  21394
   11865.5  487007  44869.5  18906
   11865.9  487217  42569.5  17750
   11866.5  486895  35986.5  14574
   11867.1  486859  29056.5  11354
   11867.4  486754  25553.5  9781
   11868  487280  19094.5  6958
   11868.6  487248  13636.5  4649
   11868.9  486963  12016.5  3969
   11869.5  487129  9216.5  2773
   11870.1  487689  8618.5  2402
   11870.5  487186  8940.5  2439
   11871.1  486616  10655.5  2861
   11871.4  486171  11538.5  3096
   11872  486673  14405.5  3892
   11872.6  485698  17105.5  4660
   11872.9  485110  18389.5  5037
   11873.5  484349  20556.5  5688
   11874.1  484927  21991.5  6148
   11874.4  484901  22332.5  6265
   11875.1  485133  22650.5  6433
   11875.4  484399  22542.5  6438
   11876  485345  22174.5  6429
   11876.6  485549  21691.5  6396
   11876.9  485165  21509.5  6387
   11877.5  484668  21209.5  6411
   11878.1  485294  21168.5  6501
   11878.4  485199  21195.5  6554
   11879  485175  21361.5  6677
   11879.4  484933  21447.5  6728
   11880  484755  21696.5  6862
   11880.6  484710  21938.5  6980
   11880.9  484500  22032.5  7021
   11881.5  483818  22186.5  7103
   11882.1  484162  22376.5  7189
   11882.4  484528  22448.5  7221
   11883  484518  22588.5  7275
   11883.7  483039  22655.5  7297.01
   11884  483355  22740.5  7325
   11884.6  483077  22863.5  7361
   11884.9  483104  22903.5  7365
   11885.5  482290  22990.5  7397
   11886.1  481991  23083.5  7431
   11886.4  481616  23114.5  7443
   11887  481761  23222.5  7484
   11887.6  481658  23318.5  7522
   11888  481949  23375.5  7538
   11888.6  482568  23526.5  7596
   11888.9  482458  23575.5  7609.01
   11889.5  482002  23684.5  7647
   11890.1  481563  23796.5  7680
   11890.4  482019  23879.5  7703
   11891  481903  24018.5  7748
   11891.6  481498  24147.5  7780
   11892  481456  24221.5  7807
   11892.6  481561  24382.5  7858
   11892.9  481628  24446.5  7881
   11893.5  481430  24590.5  7933
   11894.1  481438  24736.5  7991
   11894.4  481499  24825.5  8029.01
   11895  481098  24942.5  8091
   11895.6  480897  25079.3  8161.76
   11896.3  480585  25196.5  8231.04
   11896.9  480241  25317.3  8294.84
   11897.5  481084  25483.6  8371.15
   11898.4  480609  25637.4  8443
   11899  480061  25701.7  8459.35
   11899.7  480217  25810.4  8483.23
   11900.6  481106  25984.8  8533.62
   11901.2  481021  26045.6  8539.53
   11902.1  481091  26117.9  8554.97
   11903  481014  26169.7  8575.93
   11903.7  482158  26249.1  8596.39
   11904.6  482249  26274.9  8616.39
   11905.5  482405  26266.2  8623.9
   11906.4  482732  26261.1  8633.93
   11907.4  482721  26213.5  8631.49
   11908.3  483661  26212.4  8636.56
   11909.2  484315  26154.8  8626.15
   11910.1  485286  26097.7  8612.26
   11911.1  486008  26001.1  8574.89
   11912.3  486501  25827.9  8510.03
   11913.2  487359  25716.4  8462.7
   11914.2  487775  25555.3  8400.89
   11915.4  487301  25290.7  8301.6
   11916.3  488313  25155.7  8262.82
   11917.6  489586  24969.1  8221.57
   11918.8  490157  24765.1  8190.83
   11919.7  490686  24633.5  8177.61
   11921  492462  24522.5  8179.91
   11922.2  493421  24406  8163.74
   11923.4  494795  24323  8160.08
   11924.7  496149  24266.5  8145.94
   11925.9  495844  24157.5  8124.33
   11927.1  497607  24190  8140.23
   11928.4  499067  24228  8149.64
   11929.6  500669  24282.5  8167.58
   11930.9  501514  24321.5  8170.04
   11932.4  503015  24435.1  8187.03
   11933.7  503853  24541.1  8199.52
   11934.9  505731  24739.7  8247.53
   11936.4  507616  25010.8  8309.08
   11938  508695  25262.3  8367.13
   11939.2  509291  25457.4  8431.71
   11940.8  510402  25767  8538.8
   11942.3  511086  26061.1  8651.41
   11943.6  511827  26301.7  8746.54
   11945.1  514720  26720.8  8903.2
   11946.7  518007  27143.4  9058.37
   11948.2  520280  27496.6  9195.07
   11949.8  520990  27751.2  9298.27
   11951.3  523817  28074.3  9418.01
   11952.9  526060  28336  9524.25
   11954.8  527133  28520.1  9610.02
   11956.3  529130  28704.8  9700.32
   11957.9  530406  28806  9760.12
   11959.7  532325  28933.7  9817.45
   11961.3  534114  29013.8  9843.3
   11963.2  536256  29093.5  9866.67
   11964.7  538153  29144.7  9876.55
   11966.6  540913  29217.5  9904.95
   11968.5  541788  29177.7  9910.88
   11970  545151  29274.4  9989.33
   11971.9  546921  29273.6  10051.3
   11973.8  549305  29294.4  10119.8
   11975.6  552456  29344.6  10186.8
   11977.5  554243  29335.4  10217.3
   11979.4  556381  29337.7  10230.3
   11981.3  558796  29361.4  10253.9
   11983.1  560566  29350.7  10256
   11985  562234  29340.5  10247.6
   11987.2  562979  29282.8  10213.7
   11989.1  565456  29331.6  10209.3
   11991.3  570928  29540.9  10244.5
   11993.2  573374  29613.7  10239.2
   11995.3  575174  29683.1  10218.4
   11997.2  578045  29834.9  10235.1
   11999.4  580006  29980.2  10266.3
   12001.3  582344  30174.1  10338.1
   12003.5  584383  30390.4  10429.4
   12005.7  586793  30682.3  10554.1
   12007.9  590964  31091.7  10720.4
   12010.1  591595  31348.6  10841.3
   12012.3  593422  31678.9  10982.6
   12014.5  597674  32161.8  11180.5
   12016.7  602719  32679.3  11394.9
   12018.9  606040  33103.2  11575.8
   12021.1  608170  33436.6  11730.2
   12023.6  611563  33833.5  11907.2
   12025.8  614599  34148  12057.7
   12028  616928  34370.9  12166.6
   12030.5  619872  34608.3  12289.2
   12032.7  623757  34877.3  12413.2
   12035.3  625948  35013.8  12486.7
   12037.8  628783  35166.7  12575.8
   12040  632688  35370.2  12674.4
   12042.5  635037  35458.2  12729.5
   12045  638658  35594.7  12810.1
   12047.6  642385  35740.7  12889.2
   12050.1  645141  35820.2  12947.9
   12052.6  647162  35859.3  12970.1
   12055.2  649056  35893.8  12972.8
   12057.7  651169  35954.8  12980
   12060.2  657231  36237.4  13073.8
   12062.8  661939  36462.4  13163
   12065.3  666088  36660  13256.8
   12068.1  667636  36737.1  13315.1
   12070.7  672299  36984.6  13413.9
   12073.2  675686  37201.7  13498.3
   12076.1  679496  37452.3  13570.1
   12078.6  681640  37624.4  13621.5
   12081.5  686650  37986  13734.4
   12084.3  689517  38240.1  13813.8
   12086.9  692714  38520.8  13915.7
   12089.7  697292  38897.9  14061.2
   12092.6  699005  39120.5  14177.2
   12095.5  704035  39537.7  14371.7
   12098.3  706425  39819.3  14533.7
   12101.2  709663  40152.5  14704.2
   12104.1  712828  40480.1  14878.3
   12107  717796  40914.3  15090.8
   12109.8  719952  41191  15227.9
   12112.7  724080  41583.2  15429.5
   12115.9  727795  41952.9  15636.7
   12118.8  732753  42381.1  15851.3
   12121.6  735002  42639.8  16001.5
   12124.9  740170  43066  16213.1
   12127.7  742693  43312.8  16367.4
   12130.9  748634  43754  16562.1
   12133.8  750990  43983.8  16679.3
   12137  754079  44236  16788.1
   12140.2  758373  44539.8  16905.4
   12143.4  764090  44906  17037.2
   12146.3  765282  45012.8  17069.5
   12149.6  770406  45325.1  17199.4
   12152.8  775145  45616.9  17309.7
   12156  778781  45838.2  17401.6
   12159.2  783603  46114  17521
   12162.4  786604  46292.3  17601.9
   12165.6  790564  46549.1  17733.4
   12169.2  794562  46816.5  17865.3
   12172.4  798856  47123.3  18015.8
   12175.6  802797  47404.7  18166.8
   12178.9  807503  47755.5  18333.3
   12182.4  812144  48128.9  18500.3
   12185.7  815318  48415.7  18637.9
   12189.2  819135  48785.1  18811
   12192.5  823049  49146  18990.6
   12196  828018  49600.4  19222.7
   12199.6  831542  49985.3  19409.3
   12202.8  835639  50384.7  19616.5
   12206.4  840156  50824.6  19833.1
   12210  842978  51163  20018.3
   12213.5  848713  51689  20294.1
   12217.1  853068  52110.4  20524.3
   12220.7  857142  52518.4  20758
   12224.3  860757  52893.8  20978.3
   12227.8  865501  53323.8  21218.1
   12231.4  869242  53685.3  21416.4
   12235  874490  54137.2  21645.2
   12238.9  876961  54419.7  21819.6
   12242.5  883299  54937.7  22070.4
   12246.1  886471  55264.2  22240.8
   12250  890704  55647.3  22417.7
   12253.6  895053  56028.8  22586.2
   12257.5  898969  56390.8  22734.1
   12261.2  904174  56822.3  22931.6
   12265.1  909010  57243.3  23138.5
   12269  910978  57490.9  23271.1
   12272.6  914672  57817  23439.1
   12276.6  920788  58309.5  23677.6
   12280.5  924396  58650.6  23864.7
   12284.4  928962  59033.2  24057.3
   12288.4  931978  59341.3  24233.4
   12292.3  937932  59807.9  24492
   12296.3  941183  60137  24687.1
   12300.2  943715  60410.6  24860.8
   12304.2  950569  60968.7  25143
   12308.2  954713  61345.3  25378.6
   12312.1  958856  61744.5  25611.9
   12316.1  963804  62212.1  25862.6
   12320.4  966792  62554.2  26077.9
   12324.3  972347  63064.9  26355.6
   12328.7  976143  63488.1  26607.9
   12332.6  980437  63942.7  26868.7
   12336.6  985379  64446.9  27158.1
   12340.9  989380  64905.6  27416.9
   12345.2  993277  65353.8  27691.3
   12349.2  996749  65776.5  27924.2
   12353.5  1.0015e+06  66294.7  28202.6
   12357.9  1.00628e+06  66831.4  28504.5
   12362.2  1.01009e+06  67286.7  28755
   12366.2  1.01603e+06  67877.4  29054.9
   12370.5  1.01836e+06  68240.6  29288.4
   12374.9  1.02215e+06  68693.4  29552.4
   12379.2  1.02674e+06  69179.7  29818
   12383.5  1.03101e+06  69638.4  30078
   12387.9  1.0356e+06  70120.7  30346.6
   12392.6  1.0381e+06  70451.5  30533.7
   12396.9  1.04335e+06  70967.8  30813.3
   12401.3  1.04896e+06  71501.5  31110.4
   12405.6  1.05278e+06  71908.9  31351
   12410.3  1.05547e+06  72251.7  31558.2
   12414.7  1.05996e+06  72717  31833.9
   12419  1.06396e+06  73146.9  32090.1
   12423.8  1.06869e+06  73624.1  32382.8
   12428.1  1.0743e+06  74176  32707.1
   12432.8  1.08028e+06  74755.3  33046.8
   12437.6  1.08289e+06  75126.2  33292.1
   12441.9  1.08708e+06  75588.6  33599.9
   12446.7  1.09117e+06  76082.4  33911.2
   12451.4  1.0948e+06  76533.8  34205
   12456.1  1.09964e+06  77057.7  34536.4
   12460.5  1.10301e+06  77490.1  34827.3
   12465.3  1.10581e+06  77913  35108.7
   12470  1.1113e+06  78505.4  35467.6
   12474.7  1.11619e+06  79073.4  35821
   12479.5  1.11989e+06  79552.8  36146
   12484.2  1.12392e+06  80067.7  36448.5
   12489  1.12691e+06  80499.2  36733.5
   12494.1  1.13178e+06  81096.1  37101
   12498.9  1.13685e+06  81693.6  37451
   12503.6  1.14059e+06  82199.6  37770.6
   12508.4  1.14457e+06  82727  38101.6
   12513.5  1.14462e+06  82966  38301.2
   12518.3  1.15086e+06  83662.5  38711.3
   12523.4  1.15508e+06  84212.5  39060.9
   12528.2  1.15654e+06  84558  39308.1
   12533.4  1.16101e+06  85126  39670.7
   12538.1  1.16526e+06  85673.5  40015.9
   12543.3  1.16796e+06  86116.6  40321.7
   12548.1  1.17449e+06  86808.1  40749.9
   12553.2  1.179e+06  87380.2  41117.6
   12558.4  1.18189e+06  87829.7  41431.9
   12563.6  1.18545e+06  88320.7  41779.7
   12568.7  1.1896e+06  88849.4  42137
   12573.5  1.1943e+06  89423.4  42507.8
   12578.7  1.19784e+06  89914  42861.2
   12583.9  1.20072e+06  90352.1  43182
   12589.1  1.20429e+06  90854.7  43535.4
   12594.2  1.208e+06  91360.8  43905.3
   12599.4  1.21236e+06  91944.4  44301.7
   12605  1.21457e+06  92359.5  44646.7
   12610.2  1.2169e+06  92783.1  44972.1
   12615.4  1.2215e+06  93389.3  45383.1
   12620.6  1.22605e+06  93994  45806.6
   12625.8  1.23065e+06  94633.1  46239.6
   12631.3  1.23488e+06  95250.8  46681.1
   12636.6  1.23537e+06  95564.9  46956.2
   12642.1  1.23825e+06  96089.6  47337.8
   12647.4  1.24151e+06  96647.7  47734.9
   12652.9  1.24408e+06  97146.5  48101.5
   12658.2  1.24658e+06  97622.7  48456.6
   12663.8  1.25043e+06  98197.4  48870.3
   12669  1.25506e+06  98870.6  49326.4
   12674.6  1.25594e+06  99230.3  49630.1
   12680.2  1.25933e+06  99808.5  50037.3
   12685.8  1.26377e+06  100456  50508.1
   12691.1  1.26599e+06  100924  50876.3
   12696.7  1.26747e+06  101338  51214.1
   12702.3  1.26929e+06  101760  51558.4
   12708  1.2716e+06  102226  51934.2
   12713.6  1.27025e+06  102403  52179.5
   12719.3  1.27125e+06  102783  52516.4
   12724.9  1.26896e+06  102892  52707.7
   12730.6  1.2723e+06  103441  53148.6
   12736.2  1.27468e+06  103910  53528
   12741.9  1.27754e+06  104440  53968
   12747.9  1.28118e+06  105052  54444.4
   12753.6  1.28404e+06  105589  54859.4
   12759.2  1.28715e+06  106137  55300.9
   12764.9  1.28803e+06  106491  55649.8
   12771  1.29017e+06  106996  56065.4
   12776.7  1.29357e+06  107565  56512.4
   12782.4  1.29691e+06  108144  56977
   12788.4  1.29765e+06  108536  57363.1
   12794.1  1.3005e+06  109082  57788.7
   12800.2  1.30479e+06  109772  58320.8
   12806.3  1.30861e+06  110438  58844.4
   12812  1.31162e+06  110992  59290.6
   12818.1  1.31636e+06  111732  59854.3
   12824.2  1.31796e+06  112222  60291.5
   12829.9  1.32131e+06  112829  60785.1
   12836  1.32141e+06  113183  61139.4
   12842.1  1.31995e+06  113398  61414.2
   12848.2  1.32694e+06  114350  62104.5
   12854.4  1.32769e+06  114773  62504.2
   12860.5  1.33287e+06  115561  63117.5
   12866.3  1.33257e+06  115868  63432.4
   12872.4  1.33399e+06  116346  63882.8
   12878.6  1.3383e+06  117060  64457.6
   12885.1  1.34368e+06  117896  65109