File: data/As/gaas_roomt_01.xdi
# XDI/1.0
# Column.1: energy eV
# Column.2: i0
# Column.3: itrans
# Column.4: irefer
# Beamline.name: SSRL 4-1
# Detector.I0: N2 15cm
# Detector.I1: N2 30cm
# Detector.I2: Ar 15cm
# Element.edge: K
# Element.symbol: As
# Mono.d_spacing: 3.13550
# Mono.name: Si(111)
# Mono.notes: unfocused, detuned 40%,counter clockwise at E=12000eV
# Sample.formula: GaAs
# Sample.name: GaAs gallium arsenide
# Sample.prep: powder
# Sample.reference: none
# Sample.temperature: room temperature
# Scan.start_time: 1997-01-19 14:12:16
# ///
#    Note: mono d_spacing is nominal!
#     exafs to K15
#     same as calibration scan used in as001c_1.xmu,
#     similar scans can be found in many other scans
#     320  E XMUR XMU I0
#-------------
#   energy   i0   itrans  irefer
   11650  179062  207601  325987
   11660  177192  206002  324267
   11670  178040  207532  327517
   11680  177121  207035  327524
   11690  176917  207352  328855
   11700  176478  207365  329727
   11710  175015  206215  328694
   11720  175232  207021  330810
   11730  174715  206957  331531
   11740  174755  207530  333268
   11750  174308  207548  334136
   11760  174268  208055  335748
   11770  173368  207548  335699
   11780  172148  206602  334996
   11790  172098  207062  336516
   11800  171784  207224  337488
   11810  171212  207024  337854
   11820  170442  206561  337676
   11830  169899  206281  337682
   11840  169217  205708  336769
   11850  168960  205196  334878
   11850.8  168767  204880  334186
   11851.5  167889  203765  332086
   11852.3  168602  204531  333152
   11853  169457  205459  334396
   11853.8  168118  203722  331187
   11854.5  168709  204292  331752
   11855.3  168321  203645  330304
   11856.1  167594  202554  327968
   11856.8  168081  202892  327962
   11857.6  167596  202052  325972
   11858.3  167718  201829  324737
   11859.1  168226  201950  323924
   11859.9  167494  200535  320546
   11860.6  167509  199768  317823
   11861.4  167440  198630  314168
   11862.1  167890  197913  311022
   11862.9  167833  195895  305040
   11863.6  167567  192268  295331
   11864.4  167877  188081  284050
   11865.2  167960  181316  267023
   11865.9  167363  171345  242436
   11866.7  167393  161937  216631
   11867.4  167780  152771  188947
   11868.2  167879  142070  156329
   11868.9  167247  131591  126590
   11869.7  168294  126354  108526
   11870.5  168078  123366  95151
   11871.2  167908  123414  89094.9
   11872  167064  123674  88784.9
   11872.7  167263  124881  94140.9
   11873.5  167743  126703  103864
   11874.2  167382  128101  112717
   11875  167159  129896  121053
   11875.8  166906  131879  128925
   11876.5  166781  133685  135281
   11877.3  167107  135809  140853
   11878  167456  137953  145160
   11878.8  166608  138871  146185
   11879.5  166097  139565  145728
   11880.3  166590  140932  145179
   11881.1  166485  141570  143849
   11881.8  166363  141947  142985
   11882.6  167033  142856  143418
   11883.3  166587  142596  143780
   11884.1  166046  142104  144469
   11884.8  166934  142824  146620
   11885.6  167160  143031  148302
   11886.4  165962  142062  148497
   11887.1  165579  141811  149390
   11887.9  166466  142642  151543
   11888.6  167113  143207  153431
   11889.4  166536  142657  154092
   11890.1  166337  142392  155299
   11890.9  166634  142563  156951
   11891.7  165859  141849  157391
   11892.4  166471  142379  159259
   11893.2  166840  142832  161059
   11893.9  166748  143028  162221
   11894.7  165479  142296  162192
   11895.5  166283  143449  164014
   11896.2  166277  143889  164754
   11897  165623  143657  164638
   11897.7  166182  144398  165606
   11898.5  166049  144334  165699
   11899.2  166574  144723  166332
   11900  165944  144007  165755
   11901.3  165590  143401  165526
   11902.6  166518  144026  166827
   11903.9  166048  143633  166951
   11905.2  166510  144188  168146
   11906.6  165301  143344  167483
   11908  166698  144697  169210
   11909.4  165960  144105  168275
   11910.8  165792  143889  167294
   11912.2  166314  144177  166661
   11913.6  166308  143914  165296
   11915.1  165519  143073  163391
   11916.6  166188  143707  163551
   11918.1  166874  144780  164282
   11919.6  166581  145196  164364
   11921.2  166748  145982  164777
   11922.7  166152  145985  164001
   11924.3  167558  147487  164844
   11925.9  167263  147383  163841
   11927.6  167835  147940  163726
   11929.2  167541  147624  162879
   11930.9  168633  148357  163337
   11932.5  168167  147563  162138
   11934.2  169026  147789  162177
   11936  169828  147904  162207
   11937.7  169606  147177  161391
   11939.4  170929  148028  162234
   11941.2  170976  148053  162069
   11943  171611  148834  162708
   11944.8  171413  148924  162755
   11946.7  171936  149618  163679
   11948.5  172620  150456  165036
   11950.4  172056  150201  165392
   11952.3  172434  150725  166659
   11954.2  173243  151680  168234
   11956.1  173734  152421  169508
   11958.1  174509  153485  171110
   11960  174693  153874  172010
   11962  175792  154839  173532
   11964  175879  154784  173871
   11966  176348  155076  174559
   11968.1  176541  155315  175190
   11970.2  177847  156916  177355
   11972.2  178879  158616  179618
   11974.3  179294  159930  181420
   11976.5  180490  161797  183851
   11978.6  180660  162436  184989
   11980.8  182150  163983  187219
   11982.9  183025  164833  188725
   11985.1  183647  165360  189789
   11987.3  183605  165084  189844
   11989.6  184141  165118  190137
   11991.8  184918  165202  190438
   11994.1  185567  165081  190446
   11996.4  186054  164771  190173
   11998.7  188101  165920  191444
   12001  187631  165150  190401
   12003.4  189702  166957  192243
   12005.8  190032  167484  192554
   12008.1  191327  168977  193957
   12010.6  192091  169986  194772
   12013  192860  171054  195725
   12015.4  194472  172932  197695
   12017.9  194501  173406  198074
   12020.4  196205  175350  200141
   12022.9  196083  175702  200441
   12025.4  197524  177510  202452
   12027.9  199534  179787  205050
   12030.5  199113  179817  205071
   12033.1  200472  181421  206907
   12035.7  202512  183597  209537
   12038.3  203778  185078  211463
   12040.9  204408  186006  212810
   12043.6  205595  187349  214745
   12046.3  206721  188664  216615
   12049  208521  190610  219295
   12051.7  209380  191646  220905
   12054.4  209226  191471  221145
   12057.2  210832  192631  222872
   12059.9  212832  194113  224903
   12062.7  213584  194691  225824
   12065.5  214721  195888  227417
   12068.4  216364  197654  229646
   12071.2  217072  198449  230696
   12074.1  218493  199559  232219
   12077  219859  200439  233500
   12079.9  220552  200654  234093
   12082.8  221833  201475  235397
   12085.7  223846  203039  237550
   12088.7  224986  203959  238941
   12091.7  226458  205400  240899
   12094.7  226222  205666  241421
   12097.7  228666  208491  244969
   12100.8  230166  210472  247566
   12103.8  231451  212295  249999
   12106.9  232370  213655  251929
   12110  234259  215886  254952
   12113.1  235119  217281  256985
   12116.2  236446  219188  259624
   12119.4  238217  221546  262703
   12122.6  239990  223844  265694
   12125.7  241095  225496  267877
   12129  242479  227339  270210
   12132.2  243087  228218  271397
   12135.4  245148  230289  273934
   12138.7  247156  232138  276129
   12142  247777  232453  276453
   12145.3  249610  233935  278140
   12148.6  251610  235619  280042
   12152  253771  237504  282257
   12155.4  255519  239063  284114
   12158.7  256744  240193  285578
   12162.1  256838  240367  286101
   12165.6  258489  242098  288508
   12169  262168  245779  293367
   12172.5  262821  246681  294981
   12175.9  264359  248486  297713
   12179.4  266505  250751  301048
   12183  266539  250918  301880
   12186.5  269743  254066  306235
   12190  272348  256763  310041
   12193.6  274132  258888  313104
   12197.2  275376  260522  315486
   12200.8  277366  262797  318587
   12204.5  277885  263676  319959
   12208.1  281031  267081  324373
   12211.8  282984  269507  327534
   12215.5  283176  270342  328736
   12219.2  284971  272787  331908
   12222.9  287183  275611  335602
   12226.7  288764  277794  338494
   12230.4  290802  280278  341836
   12234.2  292358  282245  344611
   12238  295236  285453  349008
   12241.9  296853  287406  351911
   12245.7  297190  288002  353223
   12249.6  299138  289899  356201
   12253.4  301817  292355  359860
   12257.3  303001  293398  361746
   12261.3  303798  294175  363344
   12265.2  306697  297068  367541
   12269.2  308524  299089  370534
   12273.1  311364  302046  374629
   12277.1  312848  303669  377040
   12281.1  315691  306639  381093
   12285.2  316998  308262  383380
   12289.2  317593  309302  384902
   12293.3  319890  312100  388579
   12297.4  323041  315700  393276
   12301.5  324596  317757  396023
   12305.6  326094  319752  398763
   12309.8  328921  323023  403126
   12314  330149  324766  405673
   12318.2  333643  328768  411046
   12322.4  333044  328758  411534
   12326.6  336345  332552  416880
   12330.8  338324  335136  420712
   12335.1  340426  337843  424832
   12339.4  342828  340860  429303
   12343.7  344049  342631  432315
   12348  346067  345058  436132
   12352.4  348531  347993  440544
   12356.7  350692  351076  444808
   12361.1  352828  353214  448365
   12365.5  354249  354637  451094
   12369.9  356050  356441  454167
   12374.3  358283  359777  458738
   12378.8  360831  362705  462954
   12383.3  363921  366098  467765
   12387.8  365505  368014  470628
   12392.3  365219  368030  471134
   12396.8  368830  372020  476740
   12401.4  369750  373302  478897
   12405.9  373903  377915  485351
   12410.5  373037  377466  485391
   12415.1  378216  383169  493403
   12419.8  380071  385576  497254
   12424.4  382667  388823  502195
   12429.1  384159  390944  505754
   12433.8  385271  392693  508871
   12438.5  389422  397618  516042
   12443.2  390726  399642  519521
   12447.9  391246  400975  522032
   12452.7  393296  403770  526431
   12457.5  396919  408174  532867
   12462.3  399111  411106  537353
   12467.1  401675  414392  542317
   12471.9  404459  417968  547582
   12476.8  405355  419578  550224
   12481.7  408885  423811  556319
   12486.6  409501  424986  558404
   12491.5  411805  427864  562790
   12496.4  415296  432022  568868
   12501.4  417529  434889  573230
   12506.4  420044  438027  578044
   12511.3  419575  438079  578856
   12516.4  421059  440208  582474
   12521.4  423965  443858  588187
   12526.4  427538  448169  594813
   12531.5  430074  451429  600067
   12536.6  431218  453175  603374
   12541.7  433529  456180  608341
   12546.8  435268  458637  612588
   12552  438123  462260  618440
   12557.1  441638  466646  625250
   12562.3  444267  470121  630817
   12567.5  444134  470656  632425
   12572.8  447172  474566  638562
   12578  449688  477972  643997
   12583.3  451994  481217  649167
   12588.5  453786  483931  653638
   12593.8  455716  486794  658357
   12599.2  460001  492209  666513
   12604.5  461810  494994  671125
   12609.9  462971  497064  674958
   12615.2  463692  498713  678114
   12620.6  468083  504218  686512
   12626  471490  508684  693637
   12631.5  471629  509595  695918
   12636.9  474368  513322  702063
   12642.4  475320  515089  705547
   12647.9  480107  521001  714776
   12653.4  482764  524640  720857
   12658.9  483862  526529  724580
   12664.5  484768  528228  727998
   12670  486346  530699  732430
   12675.6  489931  535340  739869
   12681.2  490595  536812  742935
   12686.8  494418  541808  750807
   12692.5  497494  545982  757598
   12698.1  497573  546898  759847
   12703.8  501390  551929  767793
   12709.5  502543  554045  771750
   12715.2  505292  557902  778155