File: data/Co/co_metal_rt.xdi
# XDI/1.0
# Column.1: energy eV
# Column.2: i0
# Column.3: itrans
# Beamline.name: APS 13-ID-C
# Beamline.notes: vert slits = 0.3mm
# Detector.I0: N2 10cm
# Detector.I1: N2 10cm
# Element.edge: K
# Element.symbol: Co
# Mono.d_spacing: 3.13550
# Mono.name: Si(111)
# Mono.notes: focussed, detuned 50%
# Sample.formula: Co
# Sample.name: Co foil  Room Temperature
# Sample.prep: metal foil
# Sample.reference: none
# Sample.temperature: Room Temperature
# Scan.start_time: 2001-06-26 21:21:20
# ///
#    Note: mono d_spacing is nominal!
#     data from co_foil.002
#     418 E XMU I0
#-------------
#   energy   i0   itrans
    7519  161256  353515
    7529  132049  291775
    7539  121656  270331
    7549  117736  263229
    7559  116107  261040
    7569  116203  262736
    7579  116269  264413
    7589  115530  264224
    7599  115660  265923
    7609  116148  268514
    7619  115956  269544
    7629  115447  269649
    7639  116036  272470
    7649  116062  273699
    7659  116764  276630
    7669  116069  275903
    7679  116382  277179
    7689  116998  278314
    7689.5  118155  280997
    7690  119459  283941
    7690.5  119760  284509
    7691  119884  284660
    7691.5  120265  285459
    7692  120524  285992
    7692.5  120488  285810
    7693  120600  286048
    7693.5  120612  285816
    7694  120860  286314
    7694.5  120518  285375
    7695  120231  284422
    7695.5  120630  285121
    7696  120388  284282
    7696.5  120191  283555
    7697  120859  284836
    7697.5  120665  284053
    7698  120181  282590
    7698.5  120585  283204
    7699  120354  282145
    7699.5  120516  282101
    7700  120682  281917
    7700.5  120749  281532
    7701  120690  280675
    7701.5  120622  279721
    7702  120184  277823
    7702.5  120132  276740
    7703  120563  276594
    7703.5  120707  275514
    7704  120252  272921
    7704.5  120726  272020
    7705  120762  269664
    7705.5  120568  266019
    7706  120878  263067
    7706.5  119953  255332
    7707  120318  247160
    7707.5  120046  231946
    7708  121144  210410
    7708.5  120564  175272
    7709  121005  144950
    7709.5  120265  121534
    7710  120254  103555
    7710.5  120013  89915.1
    7711  120399  81289.1
    7711.5  120554  75043.1
    7712  120195  70624.1
    7712.5  120746  68849.1
    7713  120636  68109.1
    7713.5  121285  68360.1
    7714  120811  67292.1
    7714.5  120583  64493.1
    7715  120678  59725.1
    7715.5  121121  53567.1
    7716  120389  47123.1
    7716.5  120940  41998.1
    7717  120888  36880.1
    7717.5  120279  32257.1
    7718  120693  28753.1
    7718.5  120666  25537.1
    7719  120386  22823.1
    7719.5  120348  20831.1
    7720  120661  19216.1
    7720.5  120720  17821.1
    7721  120465  16527.1
    7721.5  120613  15195.1
    7722  120024  13733.1
    7722.5  120479  12524.1
    7723  119960  11254.1
    7723.5  120518  10220.1
    7724  121168  9456.1
    7724.5  120690  8695.1
    7725  120694  8144.1
    7725.5  120863  7687.1
    7726  120822  7295.1
    7726.5  120290  6940.1
    7727  120662  6665.1
    7727.5  120419  6400.1
    7728  120506  6210.1
    7728.5  120214  6052.1
    7729  120700  5990.1
    7729.5  120081  5906.1
    7730  120081  5878.1
    7730.5  120306  5855.1
    7731  120478  5830.1
    7731.5  120602  5797.1
    7732  120905  5785.1
    7732.5  120258  5702.1
    7733  120558  5704.1
    7733.5  120637  5739.1
    7734  120782  5803.1
    7734.98  120442  5980.1
    7735.99  120597  6232.1
    7737.01  120575  6519.1
    7738.05  120487  6728.1
    7739.11  120330  6933.1
    7740.19  120010  7112.1
    7741.29  120410  7278.1
    7742.41  120185  7374.1
    7743.55  120445  7479.1
    7744.7  120420  7468.1
    7745.88  119906  7346.1
    7747.07  120501  7193.1
    7748.28  119679  6847.1
    7749.52  120178  6560.1
    7750.77  120228  6177.1
    7752.04  120242  5782.1
    7753.33  116980  5252.1
    7754.64  119301  5022.1
    7755.96  123037  4900.1
    7757.31  122004  4675.1
    7758.67  120584  4549.1
    7760.06  120929  4591.1
    7761.46  120840  4766.1
    7762.88  120169  5107.1
    7764.32  120280  5541.1
    7765.78  119988  6075.1
    7767.27  120454  6750.1
    7768.76  120550  7392.1
    7770.28  120685  7862.1
    7771.82  120571  8210.1
    7773.37  120087  8429.1
    7774.95  120653  8679.1
    7776.54  120208  8832.1
    7778.15  120479  8973.1
    7779.78  120399  8941.1
    7781.43  120287  8763.1
    7783.1  119853  8424.1
    7784.79  119840  8119.1
    7786.5  119851  7777.1
    7788.23  120047  7448.1
    7789.97  120005  7134.1
    7791.74  120483  6957.1
    7793.52  120594  6812.1
    7795.32  119777  6571.1
    7797.15  119823  6280.1
    7798.98  120197  5929.1
    7800.85  120041  5520.1
    7802.72  120116  5119.1
    7804.62  120648  4844.1
    7806.54  119587  4634.1
    7808.47  120430  4700.1
    7810.43  120094  4847.1
    7812.4  120339  5077.1
    7814.4  120357  5313.1
    7816.41  120182  5621.1
    7818.44  120276  6074.1
    7820.49  120372  6556.1
    7822.56  120115  7059.1
    7824.65  120471  7688.1
    7826.75  119778  8257.1
    7828.88  120035  8819.1
    7831.02  119306  9217.1
    7833.19  120164  9569.1
    7835.37  120278  9667.1
    7837.57  120353  9572.1
    7839.79  119883  9403.1
    7842.03  119720  9256.1
    7844.29  119624  9130.1
    7846.57  119963  8973.1
    7848.87  120027  8778.1
    7851.19  120038  8551.1
    7853.52  119760  8302.1
    7855.87  119553  7982.1
    7858.25  119922  7571.1
    7860.64  120077  7091.1
    7863.05  119860  6582.1
    7865.48  120002  6170.1
    7867.93  120503  5814.1
    7870.4  119750  5503.1
    7872.89  119761  5328.1
    7875.39  118851  5245.1
    7877.92  120596  5425.1
    7880.46  119972  5670.1
    7883.03  120220  6134.1
    7885.61  120568  6793.1
    7888.21  119234  7464.1
    7890.83  119526  8402.1
    7893.47  119738  9377.1
    7896.13  119630  10160.1
    7898.81  117760  10429.1
    7901.5  120295  10697.1
    7904.22  120198  10418.1
    7906.95  119898  10036.1
    7909.71  120255  9715.1
    7912.48  119913  9393.1
    7915.27  119853  9213.1
    7918.08  119545  9092.1
    7920.91  118695  8977.1
    7923.76  119122  9015.1
    7926.63  119776  9031.1
    7929.52  120223  9081.1
    7932.42  120292  9078.1
    7935.35  120788  9114.1
    7938.29  119453  8936.1
    7941.25  119919  8842.1
    7944.24  119977  8611.1
    7947.24  119486  8218.1
    7950.26  119332  7927.1
    7953.3  119714  7714.1
    7956.35  119289  7555.1
    7959.43  119893  7620.1
    7962.53  119662  7789.1
    7965.64  119685  8200.1
    7968.78  119546  8645.1
    7971.93  119362  9189.1
    7975.1  119112  9703.1
    7978.29  120322  10238.1
    7981.5  119979  10452.1
    7984.73  119467  10637.1
    7987.98  120311  11042.1
    7991.25  120293  11292.1
    7994.53  119147  11330.1
    7997.84  119113  11465.1
    8001.16  119506  11541.1
    8004.51  119071  11362.1
    8007.87  119135  11237.1
    8011.25  119281  11075.1
    8014.65  120286  11087.1
    8018.07  119363  10777.1
    8021.51  119715  10709.1
    8024.97  119485  10636.1
    8028.44  118884  10561.1
    8031.94  119937  10568.1
    8035.45  119554  10429.1
    8038.99  120097  10385.1
    8042.54  119369  10267.1
    8046.11  119480  10273.1
    8049.7  119218  10303.1
    8053.31  120796  10619.1
    8056.94  119866  10681.1
    8060.59  119537  10942.1
    8064.26  119527  11267.1
    8067.94  119197  11516.1
    8071.65  119646  11780.1
    8075.37  119190  11899.1
    8079.11  119994  12202.1
    8082.88  119219  12267.1
    8086.66  119644  12588.1
    8090.46  119780  12875.1
    8094.27  119313  12982.1
    8098.11  119326  13111.1
    8101.97  119526  13266.1
    8105.85  120467  13504.1
    8109.74  118900  13277.1
    8113.65  119509  13319.1
    8117.59  119928  13334.1
    8121.54  119023  13152.1
    8125.51  119633  13132.1
    8129.5  119001  13020.1
    8133.51  119711  13124.1
    8137.54  119216  13056.1
    8141.59  118925  13034.1
    8145.65  119795  13154.1
    8149.74  120343  13230.1
    8153.84  119613  13210.1
    8157.96  119371  13317.1
    8162.11  119052  13505.1
    8166.27  120521  13841.1
    8170.45  120045  13993.1
    8174.65  119880  14169.1
    8178.87  119446  14275.1
    8183.1  119599  14405.1
    8187.36  120324  14617.1
    8191.64  118199  14522.1
    8195.93  119977  14879.1
    8200.24  119930  15027.1
    8204.58  119827  15218.1
    8208.93  120267  15528.1
    8213.3  119129  15480.1
    8217.69  119576  15727.1
    8222.1  119583  15908.1
    8226.52  118479  15902.1
    8230.97  119114  16063.1
    8235.44  119792  16214.1
    8239.92  120453  16365.1
    8244.42  119167  16195.1
    8248.95  119140  16170.1
    8253.49  119436  16203.1
    8258.05  119614  16217.1
    8262.63  119700  16217.1
    8267.23  119286  16223.1
    8271.85  119599  16378.1
    8276.48  119851  16536.1
    8281.14  119496  16645.1
    8285.81  119148  16765.1
    8290.51  120169  17162.1
    8295.22  119507  17208.1
    8299.95  118931  17307.1
    8304.7  118944  17494.1
    8309.47  119483  17747.1
    8314.26  119059  17834.1
    8319.07  118848  17969.1
    8323.9  119158  18272.1
    8328.74  117383  18072.1
    8333.61  96788.7  15158.1
    8338.49  139071  21943.1
    8343.4  128907  20345.1
    8348.32  123641  19587.1
    8353.26  121780  19396.1
    8358.22  119838  19273.1
    8363.2  119480  19261.1
    8368.2  119228  19346.1
    8373.21  119357  19493.1
    8378.25  119795  19687.1
    8383.31  118989  19627.1
    8388.38  118616  19709.1
    8393.47  119711  20094.1
    8398.58  119567  20055.1
    8403.72  119130  20099.1
    8408.87  116889  19854.1
    8414.04  120292  20654.1
    8419.23  119072  20492.1
    8424.43  119450  20728.1
    8429.66  119340  20963.1
    8434.9  119256  21133.1
    8440.17  118552  21117.1
    8445.45  118895  21345.1
    8450.76  119488  21712.1
    8456.08  119160  21825.1
    8461.42  119040  21982.1
    8466.78  119831  22384.1
    8472.16  119691  22573.1
    8477.55  119011  22489.1
    8482.97  119128  22698.1
    8488.41  119602  23008.1
    8493.86  119185  23061.1
    8499.33  118573  23123.1
    8504.83  119303  23509.1
    8510.34  119149  23661.1
    8515.87  119734  23852.1
    8521.42  119794  23992.1
    8526.99  119804  24213.1
    8532.58  119646  24260.1
    8538.18  119459  24463.1
    8543.81  119312  24589.1
    8549.45  120252  25015.1
    8555.12  119595  24956.1
    8560.8  119291  25064.1
    8566.5  119778  25365.1
    8572.23  117637  25265.1
    8577.97  119956  25724.1
    8583.72  120079  25914.1
    8589.5  119371  26149.1
    8595.3  119660  26296.1
    8601.11  119449  26456.1
    8606.95  119844  26768.1
    8612.81  120043  27070.1
    8618.68  119131  26996.1
    8624.57  119607  27373.1
    8630.48  119709  27612.1
    8636.41  119252  27637.1
    8642.36  119460  28018.1
    8648.33  119078  28070.1
    8654.32  120264  28619.1
    8660.32  118958  28467.1
    8666.35  119902  29001.1
    8672.39  119852  29154.1
    8678.46  118844  29155.1
    8684.54  120546  29709.1
    8690.64  119531  29655.1
    8696.76  119632  29935.1
    8702.9  119709  30130.1
    8709.06  119507  30312.1
    8715.24  119935  30701.1
    8721.43  119488  30852.1
    8727.65  119166  30977.1
    8733.88  119839  31322.1
    8740.14  101242  27032.1
    8746.41  131196  35091.1
    8752.7  125321  33647.1
    8759.01  122857  33212.1
    8765.34  120710  32823.1
    8771.69  118814  32554.1
    8778.06  120857  33314.1
    8784.44  118654  32975.1
    8790.85  119798  33634.1
    8797.27  118734  33530.1
    8803.72  119302  34062.1
    8810.18  118010  33915.1
    8816.66  119594  34613.1
    8823.17  118817  34631.1
    8829.69  119876  35230.1
    8836.23  118755  35168.1
    8842.78  119590  35671.1
    8849.36  120117  36079.1
    8855.95  119509  36169.1
    8862.57  118858  36190.1
    8869.2  120229  36910.1
    8875.86  119054  36807.1
    8882.53  119312  37181.1
    8889.22  119433  37460.1
    8895.93  119900  37892.1
    8902.66  119105  37920.1
    8909.41  119633  38367.1
    8916.18  118941  38412.1
    8922.96  120139  39080.1
    8929.77  120402  39456.1
    8936.59  119722  39526.1
    8943.43  120501  40055.1